PacketCounter,Acc_X,Acc_Y,Acc_Z
37579,9.691748,-0.049329,1.612910
37580,9.674642,-0.062599,1.639542
37581,9.721844,-0.058545,1.627273
37582,9.745454,-0.056646,1.621083
37583,9.769068,-0.054831,1.614858
37584,9.745143,-0.079940,1.610351
37585,9.722264,-0.038618,1.637232
37586,9.674781,-0.066036,1.638584
37587,9.685609,-0.043884,1.590103
37588,9.662430,-0.024849,1.606248
37589,9.698393,-0.065307,1.632337
37590,9.715241,-0.075253,1.594636
37591,9.739222,-0.051508,1.598805
37592,9.722057,-0.064689,1.625771
37593,9.732902,-0.042459,1.577204
37594,9.692179,-0.058030,1.610028
37595,9.692586,-0.036486,1.620210
37596,9.668662,-0.061541,1.615605
37597,9.715830,-0.057578,1.603534
37598,9.722270,-0.068510,1.624341
37599,9.669217,-0.041599,1.624886
37600,9.675645,-0.052407,1.645781
37601,9.763209,-0.055346,1.590108
37602,9.746444,-0.046354,1.627397
37603,9.716169,-0.061156,1.601347
37604,9.722553,-0.071929,1.622494
37605,9.716232,-0.062493,1.600914
37606,9.709943,-0.052891,1.579140
37607,9.669594,-0.046294,1.622511
37608,9.716765,-0.042186,1.610413
37609,9.723190,-0.053035,1.631319
37610,9.693273,-0.045803,1.615861
37611,9.716877,-0.043932,1.609690
37612,9.753225,-0.062470,1.646006
37613,9.692979,-0.069389,1.604756
37614,9.693411,-0.048024,1.614966
37615,9.710649,-0.036025,1.587518
37616,9.699473,-0.081412,1.625179
37617,9.717489,-0.025415,1.618776
37618,9.693556,-0.050567,1.614019
37619,9.699960,-0.061487,1.635040
37620,9.723556,-0.059797,1.628905
37621,9.716831,-0.072200,1.596863
37622,9.717294,-0.050635,1.606977
37623,9.706505,-0.074105,1.655152
37624,9.687393,-0.043931,1.591414
37625,9.717360,-0.052234,1.606525
37626,9.710624,-0.064695,1.574503
37627,9.717436,-0.053597,1.606021
37628,9.741052,-0.051780,1.599763
37629,9.724329,-0.043012,1.637057
37630,9.700811,-0.046065,1.642692
37631,9.694060,-0.058447,1.610724
37632,9.694104,-0.059111,1.610435
37633,9.664215,-0.051826,1.594828
37634,9.647085,-0.065017,1.621588
37635,9.724233,-0.068795,1.624500
37636,9.825372,-0.048319,1.631966
37637,9.831810,-0.059307,1.652777
37638,9.724374,-0.070801,1.623569
37639,9.664930,-0.033685,1.603477
37640,9.681712,-0.043700,1.565672
37641,9.647341,-0.069507,1.619880
37642,9.688134,-0.055153,1.586549
37643,9.724475,-0.074028,1.622822
37644,9.748515,-0.050382,1.627140
37645,9.694660,-0.067611,1.606745
37646,9.695139,-0.046261,1.617004
37647,9.701522,-0.057055,1.638139
37648,9.718759,-0.044877,1.610706
37649,9.702067,-0.036165,1.648030
37650,9.694844,-0.070588,1.605506
37651,9.718893,-0.046950,1.609837
37652,9.724878,-0.080067,1.620121
37653,9.718992,-0.048423,1.609197
37654,9.695482,-0.051582,1.614785
37655,9.725500,-0.060343,1.629536
37656,9.736812,-0.015940,1.591474
37657,9.718739,-0.073193,1.597335
37658,9.719235,-0.051775,1.607625
37659,9.695279,-0.076775,1.602595
37660,9.702635,-0.043554,1.644505
37661,9.719440,-0.053546,1.606329
37662,9.701830,-0.088773,1.622641
37663,9.719965,-0.032706,1.616478
37664,9.719541,-0.055540,1.605645
37665,9.720022,-0.034116,1.616108
37666,9.696036,-0.059074,1.611201
37667,9.719637,-0.057231,1.605008
37668,9.696550,-0.038267,1.621464
37669,9.702958,-0.049225,1.642436
37670,9.696184,-0.061629,1.610213
37671,9.719799,-0.059995,1.603925
37672,9.713934,-0.028261,1.593098
37673,9.703156,-0.051937,1.641180
37674,9.696344,-0.064011,1.609156
37675,9.703249,-0.052950,1.640602
37676,9.696453,-0.065227,1.608455
37677,9.702873,-0.076191,1.629335
37678,9.696492,-0.066445,1.608169
37679,9.696522,-0.067220,1.607951
37680,9.750574,-0.051435,1.627408
37681,9.720679,-0.044005,1.611910
37682,9.696677,-0.068998,1.606944
37683,9.727155,-0.055772,1.632440
37684,9.713922,-0.057814,1.579402
37685,9.673657,-0.051482,1.623118
37686,9.710507,-0.048588,1.669832
37687,9.720904,-0.048260,1.610432
37688,9.696888,-0.073259,1.605478
37689,9.714572,-0.039151,1.588969
37690,9.727361,-0.060474,1.631045
37691,9.703847,-0.063331,1.636690
37692,9.727461,-0.061491,1.630409
37693,9.697588,-0.053996,1.614800
37694,9.691253,-0.044254,1.593369
37695,9.704502,-0.043637,1.646351
37696,9.691288,-0.045364,1.593127
37697,9.721792,-0.032098,1.618590
37698,9.697749,-0.057033,1.613729
37699,9.704669,-0.046168,1.645298
37700,9.721409,-0.055976,1.607129
37701,9.721941,-0.034652,1.617643
37702,9.697887,-0.059519,1.612804
37703,9.721496,-0.057758,1.606543
37704,9.698471,-0.038860,1.623012
37705,9.698000,-0.061472,1.612051
37706,9.715752,-0.027395,1.595306
37707,9.698619,-0.040892,1.622079
37708,9.722210,-0.039086,1.615926
37709,9.751659,-0.069825,1.620205
37710,9.698186,-0.064758,1.610805
37711,9.728132,-0.073364,1.625909
37712,9.715430,-0.053362,1.583302
37713,9.698848,-0.044960,1.620601
37714,9.715542,-0.054712,1.582571
37715,9.722480,-0.043917,1.614180
37716,9.697892,-0.090806,1.598506
37717,9.722569,-0.045320,1.613605
37718,9.705448,-0.058746,1.640294
37719,9.715751,-0.058020,1.581167
37720,9.699122,-0.049449,1.618828
37721,9.675640,-0.052301,1.624305
37722,9.496914,0.303420,2.956876
37723,9.698810,-0.338386,1.699153
37724,9.914445,-0.154788,0.416556
37725,9.751738,0.027181,1.358769
37726,9.706439,-0.019638,1.662107
37727,9.698891,-0.074138,1.606150
37728,9.736402,-0.050824,1.663171
37729,9.714206,-0.014410,1.488078
37730,9.749580,0.077945,1.469950
37731,9.692339,-0.065029,1.586036
37732,9.674811,-0.057859,1.829156
37733,9.737205,0.009048,1.499981
37734,9.734552,0.056599,1.614325
37735,9.679088,-0.024960,1.761037
37736,9.679790,0.016784,1.784868
37737,9.710166,0.008888,1.597208
37738,9.675414,0.135697,1.621925
37739,9.668121,-0.250496,1.813191
37740,9.740974,-0.133443,1.652575
37741,9.702477,-0.023770,1.756049
37742,9.712577,0.157267,1.681038
37743,9.779426,0.092607,1.299932
37744,9.882738,-0.107657,1.216062
37745,9.853818,-0.036972,1.707770
37746,10.508329,0.278077,1.991667
37747,13.117688,0.444607,2.362659
37748,13.878939,-0.330107,2.727606
37749,14.542633,-0.931032,2.468547
37750,15.049016,-1.555938,1.815626
37751,15.816577,-2.334753,1.196019
37752,17.230135,-2.608422,1.053578
37753,19.022662,-2.475801,1.790759
37754,21.225489,-2.157200,1.185950
37755,21.791695,-1.489437,2.153033
37756,21.232529,-0.690403,3.085238
37757,20.043473,-0.086023,3.538736
37758,18.096847,0.702221,3.957686
37759,16.406471,1.282819,3.799945
37760,14.867731,1.977493,3.538383
37761,13.472470,2.525557,3.225085
37762,11.958030,3.001797,3.086711
37763,10.894493,3.509142,3.290157
37764,9.843596,3.646129,3.359361
37765,8.768330,3.564143,3.121785
37766,8.045383,3.619899,2.983605
37767,7.275377,3.624595,2.546005
37768,6.601587,3.380309,1.845057
37769,6.054610,3.033911,1.181475
37770,5.565638,2.615581,0.410386
37771,5.026394,2.218699,0.004063
37772,4.717621,1.711637,-0.146757
37773,4.480746,1.271987,-0.530005
37774,4.695211,1.072323,-0.869366
37775,5.054678,0.805828,-1.225531
37776,5.384844,0.523819,-1.572618
37777,5.865114,0.525478,-1.811699
37778,6.199601,0.385962,-1.725758
37779,6.095332,0.236132,-1.269736
37780,6.240240,0.365002,-1.072259
37781,6.218736,0.231035,-1.247304
37782,5.829799,0.013065,-1.272848
37783,5.629107,-0.094475,-1.366457
37784,5.676716,-0.246458,-1.590226
37785,5.879904,-0.350799,-1.651432
37786,6.394024,-0.415597,-1.729494
37787,7.130604,-0.427895,-1.778802
37788,7.718626,-0.332720,-1.578931
37789,7.837540,-0.183249,-1.591659
37790,7.503878,-0.169145,-1.632562
37791,6.993736,0.024111,-1.558822
37792,6.698906,0.130780,-1.551011
37793,6.719880,0.124432,-1.605866
37794,7.008089,0.161861,-1.445098
37795,7.502173,0.200605,-1.463215
37796,8.051330,0.155768,-1.512078
37797,8.464534,0.003270,-1.822265
37798,8.730690,0.064764,-1.719905
37799,8.992667,0.213536,-1.472041
37800,9.085465,0.453796,-1.306299
37801,9.085474,0.591982,-1.213153
37802,8.946059,0.538029,-1.409698
37803,8.634208,0.333492,-1.719266
37804,8.492064,0.249891,-1.626089
37805,8.694340,0.257068,-1.534529
37806,8.806831,0.174096,-1.509283
37807,9.042388,0.205869,-1.533332
37808,9.143142,0.166847,-1.685258
37809,9.213851,0.052610,-1.944141
37810,9.173719,0.079301,-2.108027
37811,9.184430,-0.050095,-2.328808
37812,9.254542,-0.080124,-2.265562
37813,9.385951,-0.121208,-2.118242
37814,9.403592,-0.322514,-2.046395
37815,9.592938,-0.302544,-1.973946
37816,9.538278,-0.323376,-1.914860
37817,9.458088,-0.344105,-1.974552
37818,9.517606,-0.498868,-2.251329
37819,9.540933,-0.606409,-2.353796
37820,9.585471,-0.540901,-2.082950
37821,9.686318,-0.540688,-1.876999
37822,9.710482,-0.475653,-1.594099
37823,9.677865,-0.505606,-1.409065
37824,9.686717,-0.412388,-1.438594
37825,9.723491,-0.429918,-1.529903
37826,9.642201,-0.465921,-1.579928
37827,9.809450,-0.498245,-1.747343
37828,9.873460,-0.486334,-1.846336
37829,9.827193,-0.498390,-1.852984
37830,9.742103,-0.620054,-1.851916
37831,9.647633,-0.759150,-1.824240
37832,9.459869,-0.742378,-1.642040
37833,9.631974,-0.643320,-1.659656
37834,9.829045,-0.748760,-1.722107
37835,9.822828,-0.692280,-1.621658
37836,9.988014,-0.703747,-1.632074
37837,9.953112,-0.689273,-1.588483
37838,9.969369,-0.573135,-1.540983
37839,9.878038,-0.569502,-1.551037
37840,9.626665,-0.645271,-1.694358
37841,9.564746,-0.651492,-1.847520
37842,9.566237,-0.652823,-1.899103
37843,9.600204,-0.530065,-1.692202
37844,9.559259,-0.455226,-1.612270
37845,9.546693,-0.440394,-1.632853
37846,9.537894,-0.454874,-1.604869
37847,9.643232,-0.446704,-1.714498
37848,9.749250,-0.492485,-1.833039
37849,9.737308,-0.477610,-1.849815
37850,9.666325,-0.445006,-1.773019
37851,9.571316,-0.439865,-1.742688
37852,9.566239,-0.377964,-1.515662
37853,9.492490,-0.396098,-1.409837
37854,9.451152,-0.371424,-1.287545
37855,9.337978,-0.451396,-1.342210
37856,9.340678,-0.429984,-1.470635
37857,9.414618,-0.466483,-1.588979
37858,9.488192,-0.475493,-1.610675
37859,9.676103,-0.486446,-1.682449
37860,9.623959,-0.561995,-1.778634
37861,9.479913,-0.553115,-1.775020
37862,9.503392,-0.524748,-1.732283
37863,9.424352,-0.511673,-1.807662
37864,9.401585,-0.537075,-1.847678
37865,9.385088,-0.406821,-1.620702
37866,9.346157,-0.332116,-1.529709
37867,9.299377,-0.276703,-1.589325
37868,9.251167,-0.296451,-1.525303
37869,9.307966,-0.442312,-1.639920
37870,9.490915,-0.605801,-1.789296
37871,9.705736,-0.621639,-1.769656
37872,9.811641,-0.644972,-1.787517
37873,9.936345,-0.582294,-1.715440
37874,9.873591,-0.564191,-1.581002
37875,9.855793,-0.544586,-1.510553
37876,9.781350,-0.618642,-1.544701
37877,9.906353,-0.685829,-1.537166
37878,9.958302,-0.773952,-1.605605
37879,9.780950,-0.830813,-1.665423
37880,9.469631,-0.807805,-1.603051
37881,9.094072,-0.815091,-1.557760
37882,8.784540,-0.873495,-1.601356
37883,8.597742,-0.888963,-1.626246
37884,8.301711,-0.987949,-1.749416
37885,7.917413,-1.005772,-1.813093
37886,7.479688,-0.984103,-1.769954
37887,7.105381,-0.824900,-1.549903
37888,6.748992,-0.556375,-1.321824
37889,6.502872,-0.440036,-1.223102
37890,6.363689,-0.420300,-1.060203
37891,6.153965,-0.577333,-1.098754
37892,6.098073,-0.670036,-1.153519
37893,6.156869,-0.733163,-1.150823
37894,6.189467,-0.754751,-1.378018
37895,6.407485,-0.794066,-1.637590
37896,6.408269,-0.769257,-1.868018
37897,6.477327,-0.747796,-1.929814
37898,6.635634,-0.542837,-1.620038
37899,6.709376,-0.253141,-1.009895
37900,6.509504,-0.009978,-0.433380
37901,6.259943,0.198350,0.108347
37902,6.255788,0.560594,0.437228
37903,6.288748,0.676514,0.549459
37904,6.189287,0.770355,0.724578
37905,6.545575,1.072814,1.185062
37906,7.053235,1.461615,1.366908
37907,7.227685,1.802393,1.060007
37908,6.857394,1.983842,0.761973
37909,6.198811,1.821723,0.144649
37910,5.636273,1.195161,-0.059782
37911,5.503195,0.271522,0.284440
37912,6.914983,-0.606252,0.466194
37913,9.167177,-0.900272,1.046084
37914,11.894251,-0.818195,1.382794
37915,13.832137,-0.568278,1.558524
37916,14.407498,-0.031144,1.856790
37917,13.665905,0.123026,1.901138
37918,12.247165,-0.249372,1.649130
37919,10.747303,-0.227847,1.645531
37920,9.538792,-0.220796,1.599635
37921,9.673180,0.426053,2.220409
37922,10.881803,1.043427,2.910839
37923,12.585802,1.562743,3.603612
37924,14.185474,1.690412,3.945017
37925,14.971771,1.536328,3.713861
37926,15.143867,1.316972,3.112777
37927,14.748980,1.080293,2.659600
37928,14.118745,0.792201,2.529526
37929,13.757990,0.613864,2.518462
37930,13.503476,0.392523,2.464558
37931,13.426999,0.244666,2.213963
37932,13.567496,-0.081955,1.943399
37933,13.679373,-0.143423,1.654216
37934,13.672809,-0.050742,1.698183
37935,13.441666,0.025770,1.847263
37936,12.966959,0.205243,2.128918
37937,12.421581,0.404527,2.317976
37938,11.891036,0.414026,2.240532
37939,11.445574,0.327533,2.089017
37940,11.130396,0.105084,1.795512
37941,10.626501,-0.215477,1.616421
37942,10.360695,-0.279056,1.632829
37943,10.591257,-0.570016,1.642669
37944,10.372123,-0.303730,1.683453
37945,10.853866,-0.087489,2.057456
37946,10.797050,0.030768,2.127380
37947,10.908484,-0.034456,2.105076
37948,11.118809,-0.028553,2.121425
37949,10.779160,0.047341,2.346212
37950,10.343985,0.023015,2.500661
37951,10.276017,-0.055723,2.413701
37952,10.298046,0.056932,2.307195
37953,10.162631,0.106606,2.111714
37954,9.661846,0.043345,1.894335
37955,9.229971,0.030585,1.691194
37956,8.977854,0.162287,1.621201
37957,8.829087,0.256924,1.769713
37958,9.066626,0.320087,1.801257
37959,9.359122,0.256259,1.759518
37960,9.526396,0.125019,1.687566
37961,9.615532,-0.084641,1.559742
37962,9.591772,-0.107495,1.632793
37963,9.544678,-0.055020,1.768818
37964,9.813768,0.034616,1.763680
37965,10.053060,0.111387,1.729275
37966,12.277211,0.710039,2.061586
37967,9.748637,-0.668699,1.620729
37968,9.826216,0.009198,1.413752
37969,9.720896,-0.237254,1.552143
37970,9.700623,-0.021064,1.710753
37971,9.733328,-0.068002,1.604060
37972,9.689423,-0.153882,1.682537
37973,9.716900,-0.087102,1.626410
37974,9.687180,-0.057816,1.625976
37975,9.691875,-0.015622,1.778061
37976,9.723959,-0.081368,1.658952
37977,9.736893,-0.046992,1.524538
37978,9.708102,-0.020193,1.740894
37979,9.694261,-0.034173,1.674090
37980,9.668930,0.017093,1.811968
37981,9.658965,-0.014707,1.854922
37982,9.736581,-0.113085,1.478383
37983,9.669338,-0.047071,1.762702
37984,9.805026,-0.203346,1.169059
37985,9.721271,-0.092987,1.525359
37986,9.721643,-0.053175,1.555082
37987,9.788975,0.116315,1.312075
37988,9.707948,-0.089576,1.694260
37989,9.681586,-0.016273,1.631822
37990,9.727281,-0.089849,1.564490
37991,9.706335,-0.109989,1.464969
37992,9.741736,-0.058545,1.643755
37993,9.754269,-0.065054,1.479579
37994,9.949999,-0.299931,0.573861
37995,9.860531,-0.056301,1.226255
37996,9.681597,0.130165,1.812960
37997,9.703685,0.141479,1.883522
37998,9.651649,-0.060941,1.839511
37999,9.466211,-0.006220,2.372307
38000,9.488778,-0.057576,2.387419
38001,9.543765,-0.026693,2.217806
38002,9.499174,-0.049540,2.332644
38003,9.481264,-0.053382,2.314533
38004,9.504386,-0.039886,2.338849
38005,9.600899,-0.023409,1.988657
38006,10.169346,0.002001,1.077852
38007,9.720768,-0.073200,0.288355
38008,9.906417,-0.104484,1.553693
38009,9.706431,-0.043269,1.601803
38010,9.723743,-0.007187,1.590172
38011,9.689601,-0.061090,1.626642
38012,9.730032,-0.041602,1.595395
38013,9.736689,-0.055368,1.614585
38014,9.689721,-0.062906,1.625860
38015,9.707052,-0.026784,1.614168
38016,9.706647,-0.047517,1.600374
38017,9.713330,-0.061375,1.619388
38018,9.707210,-0.028421,1.613187
38019,9.713903,-0.042186,1.632161
38020,9.713535,-0.063116,1.618094
38021,9.689647,-0.087460,1.609869
38022,9.737543,-0.040744,1.625521
38023,9.706559,-0.071770,1.584465
38024,9.730972,-0.028634,1.605793
38025,9.707563,-0.032630,1.610985
38026,9.690290,-0.070145,1.622166
38027,9.707637,-0.034019,1.610510
38028,9.737794,-0.044526,1.623916
38029,9.684228,-0.038725,1.615683
38030,9.707775,-0.036265,1.609627
38031,9.690950,-0.053542,1.634425
38032,9.707863,-0.037533,1.609067
38033,9.707446,-0.058367,1.595162
38034,9.714546,-0.052064,1.628044
38035,9.707963,-0.039401,1.608417
38036,9.707530,-0.060105,1.594583
38037,9.714647,-0.053854,1.627382
38038,9.701481,-0.028121,1.588158
38039,9.708145,-0.042074,1.607251
38040,9.714786,-0.055936,1.626480
38041,9.708188,-0.043225,1.606962
38042,9.708238,-0.043801,1.606647
38043,9.691911,-0.040881,1.644925
38044,9.731876,-0.041726,1.600018
38045,9.708872,-0.025522,1.619296
38046,9.731471,-0.063169,1.585880
38047,9.708947,-0.026511,1.618831
38048,9.708512,-0.047241,1.604891
38049,9.685535,-0.031136,1.624038
38050,9.715218,-0.061973,1.623681
38051,9.725520,-0.032679,1.578943
38052,9.715757,-0.043119,1.636978
38053,9.708248,-0.070871,1.589763
38054,9.722500,-0.057851,1.655554
38055,9.701729,-0.058765,1.569749
38056,9.715970,-0.045563,1.635645
38057,9.732864,-0.029492,1.610451
38058,9.702317,-0.040256,1.582785
38059,9.716092,-0.047218,1.634873
38060,9.710014,-0.014201,1.628939
38061,9.709111,-0.055303,1.601003
38062,9.709154,-0.056054,1.600718
38063,9.716284,-0.049794,1.633656
38064,9.732715,-0.053955,1.594539
38065,9.709757,-0.037710,1.613740
38066,9.692441,-0.075115,1.624709
38067,9.709865,-0.038918,1.613061
38068,9.710412,-0.019253,1.626511
38069,9.716053,-0.073430,1.618193
38070,9.726330,-0.044052,1.573671
38071,9.686514,-0.044705,1.617872
38072,9.716669,-0.055488,1.631183
38073,9.716206,-0.076323,1.617142
38074,9.710131,-0.043573,1.611340
38075,9.693295,-0.061023,1.636124
38076,9.710267,-0.044940,1.610482
38077,9.734331,-0.022176,1.618153
38078,9.710339,-0.046324,1.610010
38079,9.716997,-0.060216,1.629057
38080,9.717568,-0.040709,1.642482
38081,9.703342,-0.054926,1.576043
38082,9.717119,-0.062097,1.628261
38083,9.717688,-0.042609,1.641724
38084,9.710589,-0.050136,1.608387
38085,9.710603,-0.050728,1.608283
38086,9.694287,-0.047902,1.646860
38087,9.704108,-0.038662,1.588216
38088,9.710252,-0.072749,1.593371
38089,9.687838,-0.036353,1.626525
38090,9.703685,-0.060467,1.573731
38091,9.717999,-0.047482,1.639749
38092,9.727807,-0.038075,1.581155
38093,9.704865,-0.021916,1.600562
38094,9.710976,-0.056080,1.605853
38095,9.704405,-0.043177,1.586284
38096,9.725344,-0.043809,1.671602
38097,9.687608,-0.061247,1.610762
38098,9.711670,-0.038440,1.618641
38099,9.711167,-0.059249,1.604583
38100,9.711765,-0.039682,1.618043
38101,9.694942,-0.056973,1.642707
38102,9.741440,-0.071029,1.617060
38103,9.711902,-0.041198,1.617183
38104,9.711914,-0.041636,1.617096
38105,9.705316,-0.028790,1.597713
38106,9.687900,-0.066244,1.608807
38107,9.742087,-0.053560,1.630187
38108,9.688520,-0.047354,1.622172
38109,9.712039,-0.044688,1.616268
38110,9.735563,-0.041848,1.610333
38111,9.735583,-0.042264,1.610201
38112,9.711541,-0.066368,1.602040
38113,9.682017,-0.036753,1.602176
38114,9.712158,-0.047432,1.615471
38115,9.705576,-0.034527,1.596024
38116,9.712771,-0.028446,1.628962
38117,9.712263,-0.049271,1.614783
38118,9.728644,-0.053142,1.575559
38119,9.712325,-0.050283,1.614385
38120,9.705736,-0.037466,1.594983
38121,9.705792,-0.038016,1.594628
38122,9.705842,-0.038665,1.594311
38123,9.712493,-0.052813,1.613293
38124,10.027582,-1.862233,0.525845
38125,9.720173,-0.635939,1.429510
38126,9.736666,-0.937571,1.357950
38127,9.631587,-0.386840,1.644093
38128,9.688198,0.086655,1.896688
38129,9.678668,0.158958,1.584534
38130,9.725715,0.116345,1.748871
38131,9.686746,0.463822,1.931545
38132,9.692806,0.569051,1.694967
38133,9.602363,0.419658,2.072550
38134,9.647931,0.403325,1.842162
38135,9.692381,0.526215,1.663112
38136,9.780286,0.518982,1.313000
38137,9.724562,-0.085897,1.658241
38138,9.704513,-0.073266,1.584516
38139,9.681961,-0.054699,1.602003
38140,9.720206,-0.033201,1.660331
38141,9.753578,-0.027460,1.595390
38142,9.681984,-0.056251,1.601812
38143,9.688434,-0.068313,1.621938
38144,9.729190,-0.052683,1.588984
38145,9.731103,-0.010498,1.612442
38146,9.719400,-0.057807,1.647636
38147,9.682178,-0.058789,1.600546
38148,9.682213,-0.059285,1.600317
38149,9.684147,-0.016997,1.623721
38150,9.690570,-0.029225,1.644012
38151,9.689655,-0.051319,1.631964
38152,9.713263,-0.049799,1.625513
38153,9.714286,-0.029267,1.636912
38154,9.735924,-0.070422,1.607150
38155,9.676092,-0.052370,1.578022
38156,9.659945,-0.045326,1.616079
38157,9.707100,-0.041465,1.603561
38158,9.736089,-0.072833,1.606043
38159,9.713524,-0.054374,1.623806
38160,9.744471,-0.043065,1.649771
38161,9.700848,-0.032433,1.582178
38162,9.676382,-0.056575,1.576093
38163,9.683795,-0.047356,1.608073
38164,9.713744,-0.057392,1.622387
38165,9.731924,-0.022726,1.607352
38166,9.707461,-0.046927,1.601227
38167,9.714893,-0.038163,1.633122
38168,9.697783,-0.052892,1.659370
38169,9.684060,-0.051509,1.606346
38170,9.684100,-0.052066,1.606086
38171,9.660598,-0.055033,1.611871
38172,9.707765,-0.051390,1.599246
38173,9.761308,-0.059396,1.607161
38174,9.745189,-0.052728,1.645239
38175,9.739830,-0.020346,1.636369
38176,9.690748,-0.068120,1.624846
38177,9.715314,-0.045216,1.630435
38178,9.715358,-0.045776,1.630154
38179,9.660922,-0.060703,1.609726
38180,9.661962,-0.040093,1.621302
38181,9.691970,-0.050044,1.635238
38182,9.709190,-0.036732,1.608303
38183,9.739147,-0.046888,1.622530
38184,9.739176,-0.047640,1.622335
38185,9.714640,-0.071829,1.616433
38186,9.684740,-0.063006,1.601833
38187,9.709309,-0.039899,1.607507
38188,9.715735,-0.052199,1.627717
38189,9.708388,-0.062543,1.595058
38190,9.693278,-0.034346,1.645170
38191,9.709469,-0.042458,1.606476
38192,9.709537,-0.043182,1.606047
38193,9.722330,-0.067283,1.646812
38194,9.732109,-0.063762,1.587769
38195,9.692454,-0.059206,1.632058
38196,9.709620,-0.045929,1.605470
38197,9.685112,-0.070303,1.599276
38198,9.739677,-0.057081,1.619018
38199,9.709789,-0.048342,1.604374
38200,9.686268,-0.051028,1.610297
38201,9.710871,-0.027991,1.615914
38202,9.716266,-0.061699,1.624212
38203,9.716293,-0.062370,1.624023
38204,9.709959,-0.051288,1.603253
38205,9.717429,-0.042221,1.635267
38206,9.692894,-0.066539,1.629163
38207,9.734687,-0.029759,1.608125
38208,9.692964,-0.067688,1.628697
38209,9.694036,-0.047054,1.640386
38210,9.703817,-0.043395,1.581224
38211,9.717691,-0.046187,1.633601
38212,9.688879,-0.015981,1.630723
38213,9.710367,-0.057128,1.600580
38214,9.687919,-0.038690,1.618276
38215,9.686893,-0.060578,1.606206
38216,9.694335,-0.051730,1.638474
38217,9.711523,-0.038445,1.611775
38218,9.711565,-0.039237,1.611501
38219,9.710534,-0.061198,1.599417
38220,9.710582,-0.061815,1.599103
38221,9.711687,-0.041079,1.610725
38222,9.687113,-0.065101,1.604700
38223,9.718154,-0.054172,1.630602
38224,9.688264,-0.045377,1.616030
38225,9.711819,-0.043624,1.609860
38226,9.711868,-0.044241,1.609548
38227,9.710842,-0.066079,1.597355
38228,9.695830,-0.037976,1.647622
38229,9.705585,-0.034217,1.588486
38230,9.694869,-0.060695,1.635007
38231,9.719512,-0.037792,1.640669
38232,9.712096,-0.047862,1.608069
38233,9.713217,-0.027141,1.619717
38234,9.688634,-0.051283,1.613636
38235,9.717532,-0.082712,1.615677
38236,9.718669,-0.061962,1.627251
38237,9.695158,-0.064689,1.633135
38238,9.743375,-0.039609,1.632575
38239,9.713521,-0.030860,1.617825
38240,9.695304,-0.066795,1.632188
38241,9.713577,-0.032042,1.617467
38242,9.720002,-0.044388,1.637594
38243,9.696506,-0.047079,1.643406
38244,9.712609,-0.054908,1.604741
38245,9.720153,-0.046088,1.636650
38246,9.712761,-0.056236,1.603772
38247,9.713884,-0.035567,1.615548
38248,9.743841,-0.045735,1.629629
38249,9.719261,-0.069801,1.623394
38250,9.689365,-0.060791,1.608907
38251,9.691608,-0.018997,1.632569
38252,9.696939,-0.052836,1.640673
38253,9.714118,-0.039342,1.614049
38254,9.713070,-0.061189,1.601718
38255,9.714226,-0.040792,1.613365
38256,9.697083,-0.055445,1.639737
38257,9.714276,-0.041988,1.613035
38258,9.698278,-0.035472,1.651173
38259,9.697200,-0.057446,1.638972
38260,9.720749,-0.055791,1.632803
38261,9.714399,-0.044546,1.612225
38262,9.697270,-0.058940,1.638509
38263,9.727193,-0.068906,1.652760
38264,9.714460,-0.045973,1.611819
38265,9.714516,-0.046571,1.611460
38266,9.697387,-0.061050,1.637735
38267,9.691028,-0.049731,1.617218
38268,9.715731,-0.026774,1.622855
38269,9.738183,-0.046376,1.604533
38270,9.668748,-0.032346,1.634461
38271,9.698761,-0.042594,1.648167
38272,9.714849,-0.050360,1.609341
38273,9.738416,-0.048670,1.603051
38274,9.692518,-0.032538,1.626942
38275,9.721341,-0.064158,1.628971
38276,9.698967,-0.045865,1.646867
38277,9.722569,-0.044409,1.640372
38278,9.721480,-0.066402,1.628050
38279,9.692703,-0.036146,1.625764
38280,9.716266,-0.034478,1.619502
38281,9.722678,-0.046948,1.639655
38282,9.705528,-0.061513,1.666041
38283,9.739857,-0.033823,1.613055
38284,9.722733,-0.048321,1.639285
38285,9.715232,-0.058091,1.606763
38286,9.715218,-0.058548,1.606831
38287,9.746273,-0.047402,1.633141
38288,9.700348,-0.030991,1.657325
38289,9.715232,-0.059856,1.606700
38290,9.692843,-0.041329,1.624802
38291,9.747444,-0.028066,1.644986
38292,9.716396,-0.039868,1.618597
38293,9.710003,-0.028183,1.598346
38294,9.722734,-0.052632,1.639146
38295,9.709982,-0.029469,1.598452
38296,9.717524,-0.020649,1.630737
38297,9.685339,-0.053826,1.592189
38298,9.699250,-0.056949,1.644852
38299,9.675725,-0.059687,1.650853
38300,9.716469,-0.043858,1.618060
38301,9.716518,-0.044550,1.617746
38302,9.669454,-0.049476,1.629847
38303,9.668313,-0.070973,1.617674
38304,9.664286,-0.017236,1.621276
38305,9.742478,-0.001809,1.635119
38306,9.740203,-0.044576,1.610698
38307,9.717860,-0.026154,1.628653
38308,9.694351,-0.029010,1.634572
38309,9.692050,-0.071961,1.610244
38310,9.723171,-0.061151,1.636256
38311,9.724414,-0.040912,1.647855
38312,9.694559,-0.031826,1.633283
38313,9.693412,-0.053451,1.621053
38314,9.687076,-0.042049,1.600488
38315,9.693505,-0.054678,1.620456
38316,9.735433,-0.017773,1.599684
38317,9.717120,-0.053692,1.613846
38318,9.687226,-0.044596,1.599511
38319,9.693649,-0.057094,1.619512
38320,9.748312,-0.044177,1.639481
38321,9.747168,-0.065916,1.627145
38322,9.718470,-0.035532,1.624836
38323,9.671450,-0.040570,1.636707
38324,9.695038,-0.039065,1.630280
38325,9.726205,-0.028500,1.656157
38326,9.742239,-0.036256,1.617270
38327,9.718730,-0.039179,1.623192
38328,9.694053,-0.063205,1.616865
38329,9.671755,-0.044838,1.634792
38330,9.725223,-0.053160,1.642728
38331,9.725241,-0.053767,1.642600
38332,9.701731,-0.056532,1.648532
38333,9.665487,-0.035499,1.613803
38334,9.711424,-0.053034,1.589053
38335,9.748979,-0.054511,1.635194
38336,9.703156,-0.038324,1.659251
38337,9.695614,-0.047878,1.626616
38338,9.673344,-0.029561,1.644485
38339,9.672188,-0.051318,1.632035
38340,9.689397,-0.037667,1.605344
38341,9.648751,-0.054477,1.637534
38342,9.666012,-0.041089,1.610523
38343,9.857559,-0.053773,1.660423
38344,9.873541,-0.061376,1.621646
38345,9.672534,-0.055255,1.629855
38346,9.559272,-0.028241,1.593475
38347,9.666200,-0.044195,1.609313
38348,9.787102,-0.063316,1.677790
38349,9.773180,-0.060917,1.624793
38350,9.697495,-0.034635,1.634589
38351,9.666455,-0.046630,1.607709
38352,9.650583,-0.040440,1.645870
38353,9.688887,-0.066973,1.588630
38354,9.721348,-0.035329,1.626516
38355,9.752571,-0.024856,1.652319
38356,9.750186,-0.067725,1.627489
38357,9.690438,-0.048560,1.598754
38358,9.666960,-0.051312,1.604528
38359,9.729324,-0.029351,1.656717
38360,9.773989,-0.067828,1.619648
38361,9.723052,-0.018424,1.635821
38362,9.637244,-0.043741,1.589152
38363,9.697109,-0.064418,1.617104
38364,9.781749,-0.061683,1.651128
38365,9.742996,-0.082350,1.592213
38366,9.613850,-0.048518,1.594363
38367,9.693370,-0.012750,1.620297
38368,9.745608,-0.042255,1.615807
38369,9.797824,-0.071579,1.611433
38370,9.692212,-0.035356,1.607522
38371,9.622884,-0.021163,1.637998
38372,9.722158,-0.046354,1.621389
38373,9.782000,-0.066832,1.649435
38374,9.752129,-0.057527,1.635081
38375,9.668851,-0.040572,1.612553
38376,9.623090,-0.024311,1.636747
38377,9.745905,-0.047315,1.613872
38378,9.728798,-0.062180,1.639922
38379,9.722448,-0.050350,1.619528
38380,9.698944,-0.052930,1.625481
38381,9.693868,-0.020437,1.617235
38382,9.697765,-0.075493,1.612687
38383,9.722598,-0.052963,1.618542
38384,9.722638,-0.053592,1.618284
38385,9.700411,-0.035299,1.636417
38386,9.700433,-0.035902,1.636274
38387,9.675657,-0.059718,1.629993
38388,9.724019,-0.034928,1.629790
38389,9.752720,-0.066565,1.631209
38390,9.694226,-0.026131,1.615003
38391,9.675819,-0.062242,1.628940
38392,9.710169,-0.034388,1.575994
38393,9.705784,-0.073542,1.642612
38394,9.754153,-0.048847,1.642412
38395,9.699494,-0.062643,1.621849
38396,9.711601,-0.015674,1.587279
38397,9.700871,-0.042715,1.633511
38398,9.723185,-0.062513,1.614669
38399,9.707343,-0.056478,1.653090
38400,9.702291,-0.023907,1.644944
38401,9.693390,-0.054631,1.599864
38402,9.693416,-0.055291,1.599685
38403,9.701132,-0.047152,1.631837
38404,9.724712,-0.045782,1.625379
38405,9.694860,-0.036580,1.610992
38406,9.701303,-0.049460,1.630755
38407,9.694952,-0.037720,1.610411
38408,9.723570,-0.069197,1.612077
38409,9.694984,-0.038548,1.610200
38410,9.701393,-0.051210,1.630164
38411,9.724971,-0.049609,1.623718
38412,9.725006,-0.050254,1.623492
38413,9.702827,-0.031870,1.641640
38414,9.723828,-0.072513,1.610375
38415,9.696565,-0.021103,1.620774
38416,9.701635,-0.054897,1.628600
38417,9.701674,-0.055447,1.628349
38418,9.748761,-0.051693,1.615881
38419,9.701742,-0.056579,1.627907
38420,9.701797,-0.057171,1.627556
38421,9.703174,-0.036706,1.639490
38422,9.695501,-0.046223,1.606883
38423,9.701880,-0.059062,1.626997
38424,9.726799,-0.036534,1.632732
38425,9.709714,-0.051506,1.658610
38426,9.696998,-0.027574,1.618083
38427,9.702081,-0.061386,1.625711
38428,9.695710,-0.049807,1.605509
38429,9.708479,-0.074842,1.645672
38430,9.725696,-0.061228,1.618974
38431,9.680029,-0.045100,1.643215
38432,9.719433,-0.050027,1.598114
38433,9.727185,-0.041681,1.630307
38434,9.720879,-0.030087,1.609730
38435,9.680252,-0.047154,1.641841
38436,9.696097,-0.054480,1.603019
38437,9.705222,-0.025291,1.647375
38438,9.726154,-0.065745,1.616043
38439,9.733878,-0.057746,1.648445
38440,9.727529,-0.046167,1.628130
38441,9.697673,-0.036650,1.613854
38442,9.727624,-0.047386,1.627526
38443,9.704138,-0.050054,1.633421
38444,9.704151,-0.050750,1.633322
38445,9.680671,-0.053633,1.639172
38446,9.727761,-0.049886,1.626633
38447,9.721390,-0.038107,1.606470
38448,9.704311,-0.053179,1.632293
38449,9.696657,-0.062535,1.599335
38450,9.705779,-0.033498,1.643946
38451,9.727987,-0.053029,1.625183
38452,9.704522,-0.055638,1.630956
38453,9.704572,-0.056245,1.630637
38454,9.705959,-0.035753,1.642835
38455,9.704631,-0.057316,1.630251
38456,9.729565,-0.034974,1.636176
38457,9.703381,-0.079785,1.617131
38458,9.721952,-0.045063,1.602885
38459,9.723344,-0.024654,1.615108
38460,9.682661,-0.041818,1.647558
38461,9.721999,-0.046801,1.602552
38462,9.699923,-0.028597,1.620606
38463,9.729901,-0.039555,1.634071
38464,9.706408,-0.042152,1.640030
38465,9.706429,-0.042753,1.639891
38466,9.722227,-0.049847,1.601077
38467,9.698711,-0.052492,1.607161
38468,9.730020,-0.042356,1.633292
38469,9.706554,-0.045035,1.639087
38470,9.716013,-0.039857,1.579931
38471,9.713037,-0.058454,1.658508
38472,9.741009,-0.017922,1.585611
38473,9.705377,-0.068406,1.625371
38474,9.705424,-0.069090,1.625064
38475,9.705462,-0.069793,1.624805
38476,9.722652,-0.056068,1.598283
38477,9.724068,-0.035836,1.610531
38478,9.729064,-0.069828,1.618088
38479,9.706954,-0.051546,1.636525
38480,9.724181,-0.037804,1.609801
38481,9.683572,-0.055048,1.641803
38482,9.717916,-0.026796,1.589037
38483,9.707169,-0.054297,1.635162
38484,9.724347,-0.040516,1.608732
38485,9.675914,-0.066186,1.608512
38486,9.715039,-0.047324,1.667065
38487,9.707331,-0.056406,1.634125
38488,9.718162,-0.030272,1.587468
38489,9.707445,-0.057802,1.633402
38490,9.724662,-0.043983,1.606739
38491,9.723304,-0.065522,1.593953
38492,9.709041,-0.038631,1.644692
38493,9.724847,-0.045911,1.605562
38494,9.709129,-0.040256,1.644135
38495,9.724907,-0.047287,1.605162
38496,9.677890,-0.051953,1.617321
38497,9.701440,-0.050520,1.610962
38498,9.707861,-0.063578,1.630714
38499,9.732831,-0.041209,1.636826
38500,9.725068,-0.050490,1.604089
38501,9.709392,-0.044845,1.642460
38502,9.673135,-0.022702,1.608460
38503,9.709408,-0.045866,1.642342
38504,9.709469,-0.046516,1.641961
38505,9.709538,-0.047070,1.641537
38506,9.723882,-0.075044,1.590001
38507,9.709630,-0.048286,1.640957
38508,9.701872,-0.057501,1.608121
38509,9.649919,-0.029057,1.612727
38510,9.708311,-0.071414,1.627703
38511,9.726925,-0.036584,1.613800
38512,9.750460,-0.034962,1.607529
38513,9.700581,-0.081497,1.594618
38514,9.704954,-0.019319,1.631778
38515,9.686395,-0.055297,1.645287
38516,9.703559,-0.041417,1.618972
38517,9.678625,-0.064975,1.612441
38518,9.733569,-0.052836,1.632093
38519,9.750762,-0.038879,1.605607
38520,9.680191,-0.045767,1.624178
38521,9.634618,-0.029747,1.648907
38522,9.703795,-0.045008,1.617463
38523,9.757260,-0.053890,1.624797
38524,9.732330,-0.077403,1.618175
38525,9.710327,-0.059126,1.636471
38526,9.674115,-0.036911,1.602287
38527,9.686885,-0.062527,1.642144
38528,9.735420,-0.038272,1.642066
38529,9.697749,-0.037100,1.595366
38530,9.711997,-0.041857,1.647637
38531,9.707112,-0.009092,1.640012
38532,9.688501,-0.045071,1.653649
38533,9.704218,-0.052099,1.614713
38534,9.759139,-0.040298,1.634604
38535,9.719968,-0.060127,1.575515
38536,9.710671,-0.066823,1.634133
38537,9.705802,-0.033878,1.626490
38538,9.705841,-0.034500,1.626242
38539,9.710749,-0.068472,1.633602
38540,9.704400,-0.056599,1.613464
38541,9.712254,-0.048801,1.645930
38542,9.727966,-0.055628,1.606964
38543,9.705988,-0.037439,1.625299
38544,9.729550,-0.036074,1.618844
38545,9.706075,-0.038743,1.624751
38546,9.704646,-0.060364,1.611847
38547,9.736063,-0.050670,1.637911
