PacketCounter,Acc_X,Acc_Y,Acc_Z
15579,-0.227286,-0.063869,9.905477
15580,-0.147798,-0.051869,9.974955
15581,-0.113938,-0.034619,10.010218
15582,-0.160080,-0.079258,9.944392
15583,-0.186180,-0.064360,9.915864
15584,-0.154006,-0.074568,9.820157
15585,-0.126032,-0.088063,9.748133
15586,-0.043410,-0.107269,9.787285
15587,0.032213,-0.071936,9.757308
15588,0.010863,-0.081757,9.751503
15589,-0.075522,-0.066085,9.736073
15590,-0.044071,-0.081081,9.841463
15591,-0.125240,-0.036033,9.856466
15592,-0.143814,-0.041205,9.826939
15593,-0.123293,-0.030557,9.832745
15594,-0.155145,-0.017331,9.827899
15595,-0.150631,-0.067425,9.796469
15596,-0.178807,-0.047623,9.667369
15597,-0.197220,-0.005346,9.769887
15598,-0.081703,-0.084829,9.782509
15599,-0.086925,-0.003351,9.767496
15600,-0.084730,-0.080118,9.782523
15601,-0.019457,-0.026178,9.954689
15602,-0.074104,0.003294,9.998111
15603,-0.068462,-0.040130,9.842454
15604,-0.103693,-0.049647,9.682841
15605,-0.142493,-0.065593,9.647501
15606,-0.165304,-0.048971,9.695769
15607,-0.082921,-0.036909,9.765509
15608,-0.021329,0.019692,9.837128
15609,-0.065566,-0.001922,9.926014
15610,-0.073709,-0.001948,9.849096
15611,-0.167746,-0.041749,9.748761
15612,-0.131996,-0.079711,9.776487
15613,-0.182877,-0.102519,9.788403
15614,-0.142858,-0.082458,9.800090
15615,-0.273899,-0.087157,9.772440
15616,-0.257228,-0.073965,9.677638
15617,-0.163369,-0.088039,9.847291
15618,-0.107199,-0.035809,9.942717
15619,-0.180140,-0.039818,9.902149
15620,-0.155543,-0.026634,9.884356
15621,-0.097742,-0.000004,9.925749
15622,-0.056709,-0.005403,9.883461
15623,0.113989,0.076786,9.830210
15624,0.199603,0.036776,9.792105
15625,0.177135,0.049104,9.863925
15626,0.331612,0.090048,9.951655
15627,0.142604,-0.000127,9.898476
15628,0.396760,0.065621,9.783848
15629,0.276541,0.025703,9.903103
15630,0.545086,0.021725,9.655221
15631,0.553375,-0.002556,9.577137
15632,0.604322,-0.037133,9.657944
15633,0.511721,-0.009493,9.945054
15634,0.487213,0.032304,10.047744
15635,0.524448,-0.005241,10.152743
15636,0.522604,0.025111,10.082941
15637,0.428488,0.004628,10.137362
15638,0.417282,0.047795,10.192514
15639,0.412518,0.038660,10.216199
15640,0.366187,-0.044959,10.220155
15641,0.379955,-0.071255,10.118393
15642,0.392553,-0.076918,10.094368
15643,0.472852,-0.125725,9.901502
15644,0.342828,-0.084510,9.727705
15645,0.279337,-0.127598,9.757009
15646,0.341309,-0.118616,9.945786
15647,0.368044,-0.064774,9.982985
15648,0.543209,-0.159306,10.028457
15649,0.678809,-0.208655,9.845012
15650,0.605177,-0.243544,9.596033
15651,0.659752,-0.277502,9.474247
15652,0.560931,-0.223398,9.461367
15653,0.314448,-0.206022,9.439403
15654,0.281370,-0.158143,9.691559
15655,0.240289,-0.130608,9.788898
15656,0.085694,-0.124757,9.835067
15657,0.029960,-0.157264,9.894595
15658,0.009645,-0.069850,9.952846
15659,0.124765,-0.115448,10.042746
15660,0.240476,-0.159101,10.031701
15661,0.353874,-0.216787,9.740939
15662,0.465768,-0.283675,9.573802
15663,0.455070,-0.278221,9.544829
15664,0.458726,-0.274643,9.669555
15665,0.617931,-0.316728,9.892611
15666,0.637614,-0.291819,9.798197
15667,0.590165,-0.265196,9.641444
15668,0.544065,-0.267621,9.530628
15669,0.369861,-0.267965,9.395959
15670,0.355851,-0.288557,9.413509
15671,0.600660,-0.314497,9.579020
15672,0.728168,-0.275583,9.658655
15673,0.557922,-0.269202,9.578069
15674,0.228362,-0.215983,9.424880
15675,0.255078,-0.283827,9.669161
15676,0.272357,-0.239056,9.778272
15677,0.198452,-0.293431,9.654226
15678,0.409129,-0.340706,9.557768
15679,0.403202,-0.305975,9.334706
15680,0.395697,-0.422728,9.363502
15681,0.378920,-0.394684,9.538583
15682,0.557889,-0.374408,9.797575
15683,0.382350,-0.265410,9.832006
15684,0.328944,-0.218564,9.903547
15685,0.408541,-0.243754,9.862112
15686,0.396268,-0.256702,9.856390
15687,0.667152,-0.322789,9.866317
15688,0.912890,-0.332057,9.678534
15689,0.945350,-0.443930,9.436693
15690,0.784101,-0.371929,9.290777
15691,0.882300,-0.362197,9.231321
15692,0.922342,-0.297927,9.548203
15693,0.887993,-0.275747,9.772047
15694,0.769980,-0.327628,9.895205
15695,0.527689,-0.252362,9.814817
15696,0.417891,-0.361586,9.678064
15697,0.287530,-0.386852,9.399834
15698,0.263607,-0.357523,9.522799
15699,0.236739,-0.390196,9.760850
15700,0.170689,-0.283664,9.737544
15701,0.093094,-0.280200,9.672584
15702,0.103137,-0.247392,9.626960
15703,0.213701,-0.295851,9.711199
15704,0.362452,-0.430741,9.739140
15705,0.451291,-0.490456,9.568125
15706,0.204995,-0.490938,9.551303
15707,0.126357,-0.404539,9.474156
15708,0.206549,-0.251847,9.531746
15709,0.119659,-0.144842,9.830922
15710,-0.361697,-0.191101,10.197257
15711,-0.581974,0.159110,10.262317
15712,0.172502,0.059265,11.077999
15713,-0.167293,0.221401,11.371393
15714,-0.313983,0.069709,11.325271
15715,-0.375072,0.082687,10.715345
15716,-0.262826,0.094159,10.134728
15717,0.316538,-0.070033,9.731866
15718,0.671483,-0.055314,9.766736
15719,1.035040,-0.343770,9.535102
15720,0.967821,-0.343789,9.498615
15721,0.729297,-0.384558,9.353281
15722,0.898404,-0.374013,9.156581
15723,0.880294,-0.247918,9.071977
15724,0.677794,-0.180346,9.074700
15725,0.481100,-0.245751,9.209778
15726,0.191085,-0.115319,9.757886
15727,0.198643,-0.096074,9.989361
15728,0.049602,-0.178278,10.254737
15729,-0.243469,0.021794,10.008746
15730,-0.366030,-0.230725,9.927729
15731,-0.254318,-0.124991,9.736354
15732,0.246585,-0.320849,9.895929
15733,0.630492,-0.165380,10.034988
15734,0.740601,-0.259923,9.818839
15735,0.756809,-0.298263,9.844889
15736,0.769415,-0.258065,10.155930
15737,0.501327,-0.301286,10.204934
15738,0.352985,-0.220371,10.040519
15739,0.310897,-0.243930,9.630969
15740,0.337374,-0.334239,9.676555
15741,0.130003,-0.342693,9.841372
15742,0.014568,-0.410402,10.115413
15743,-0.115804,-0.432920,10.066090
15744,-0.200328,-0.421025,10.028573
15745,0.031559,-0.435816,9.772083
15746,0.030723,-0.490694,9.566185
15747,0.189222,-0.524791,9.318624
15748,0.231214,-0.504446,9.305839
15749,0.144892,-0.472339,9.394546
15750,0.122112,-0.351927,9.556826
15751,0.330926,-0.219920,9.691927
15752,0.239852,-0.166672,9.858595
15753,0.207303,-0.105663,9.761908
15754,-0.015379,-0.134344,9.916148
15755,-0.341901,-0.109854,10.029001
15756,-0.230890,-0.125210,10.076630
15757,-0.211719,-0.098957,10.260600
15758,-0.427218,-0.051377,10.346879
15759,-0.367703,-0.123660,10.150835
15760,-0.171668,-0.119347,10.043640
15761,-0.174883,-0.097591,10.097915
15762,-0.177161,-0.120440,10.072452
15763,-0.059141,-0.015147,10.062734
15764,-0.064356,-0.112251,10.003659
15765,-0.144981,-0.021827,9.873941
15766,-0.229661,-0.012450,9.834392
15767,-0.390437,-0.066504,9.745061
15768,-0.487143,-0.181774,9.662463
15769,-0.885604,-0.046100,9.665182
15770,-0.878621,-0.141533,9.605971
15771,-1.016260,-0.086419,9.404510
15772,-1.246029,-0.163771,9.393553
15773,-1.112233,-0.211845,9.442476
15774,-0.784877,-0.189483,9.467251
15775,-0.768707,-0.130885,9.375950
15776,-0.713519,-0.106735,9.163367
15777,-0.468429,-0.001081,9.152697
15778,-0.377160,0.011288,9.323556
15779,-0.204447,0.027248,9.361818
15780,-0.164234,-0.092746,9.531849
15781,-0.446979,-0.087907,9.770289
15782,-0.286370,-0.149678,9.822249
15783,-0.441837,-0.077178,9.794589
15784,-0.087782,-0.138451,9.687306
15785,-0.362532,-0.077989,9.858062
15786,-0.361164,-0.177763,9.971558
15787,-0.364681,-0.082563,10.154591
15788,-0.466151,-0.181187,10.271370
15789,-0.384464,-0.085985,10.297573
15790,-0.203077,-0.021659,10.342778
15791,-0.185193,0.033626,10.327165
15792,-0.104542,0.030779,10.218068
15793,-0.470207,0.111111,9.996340
15794,-0.447308,-0.028213,9.835201
15795,-0.485643,0.041948,9.733509
15796,-0.499237,-0.019311,9.849682
15797,-0.535740,0.000322,9.768904
15798,-0.359855,-0.053777,9.600406
15799,-0.154616,-0.138930,9.660738
15800,-0.159236,-0.201397,9.402661
15801,-0.352697,-0.263271,9.304834
15802,-0.422625,-0.349207,9.255401
15803,-0.476965,-0.412028,9.337142
15804,-0.255075,-0.323365,9.618968
15805,0.146781,-0.217104,9.866235
15806,0.629113,-0.183623,10.374811
15807,0.472927,0.026545,10.514317
15808,0.429300,-0.031028,10.424009
15809,0.483304,0.028488,10.366171
15810,0.460317,-0.024025,10.204306
15811,0.442054,-0.061835,10.244594
15812,0.462169,-0.108720,10.140769
15813,0.428693,-0.189151,9.971753
15814,0.258210,-0.190936,9.657513
15815,0.111767,-0.253110,9.618508
15816,0.102191,-0.232750,9.566874
15817,0.018865,-0.246825,9.421399
15818,0.001120,-0.273957,9.337991
15819,-0.103632,-0.096772,9.334070
15820,-0.038409,-0.163247,9.464435
15821,0.022125,0.039900,9.697839
15822,0.146401,0.084224,9.902397
15823,0.167688,0.104011,10.133709
15824,0.195605,0.131804,10.216947
15825,0.343084,0.043673,10.111470
15826,0.432491,-0.021033,9.795926
15827,0.454177,-0.059677,9.644697
15828,0.383201,-0.084290,9.777084
15829,0.338634,-0.093989,9.766687
15830,0.325299,-0.068045,9.691482
15831,0.111391,-0.087063,9.646535
15832,-0.063311,-0.180315,9.726721
15833,0.013257,-0.164157,9.718315
15834,0.126261,-0.143527,9.767813
15835,0.085003,-0.177667,9.756066
15836,0.097303,-0.107350,9.865994
15837,0.227618,-0.058071,9.922099
15838,0.293308,-0.001685,10.040820
15839,0.332079,-0.089738,9.963375
15840,0.323413,-0.090281,9.910421
15841,0.390078,-0.119621,9.769430
15842,0.282832,-0.141808,9.719927
15843,0.104510,-0.132813,9.734848
15844,0.202262,-0.096320,9.856958
15845,0.214381,0.023170,9.945937
15846,0.187822,-0.052543,9.806986
15847,0.159964,-0.102211,9.645704
15848,-0.039848,-0.070310,9.609936
15849,-0.377683,-0.115703,9.564837
15850,-0.007650,-0.050267,9.769581
15851,-0.124228,0.009114,10.003927
15852,-0.142928,-0.088040,9.839677
15853,-0.194903,-0.072260,9.730789
15854,-0.053135,-0.175529,9.772019
15855,-0.178254,-0.103199,9.705437
15856,-0.033320,-0.159210,9.802318
15857,0.032226,-0.001709,9.831906
15858,0.096049,-0.083834,10.085541
15859,-0.078015,-0.045856,10.031395
15860,-0.206914,-0.080915,10.077840
15861,-0.258698,-0.091580,9.991368
15862,-0.560535,-0.150961,9.826338
15863,-0.398272,-0.164080,9.705157
15864,-0.676953,-0.117692,9.557097
15865,-0.338391,-0.236890,9.757893
15866,-0.184661,-0.131444,9.773794
15867,-0.363854,-0.150007,9.812423
15868,-0.115061,-0.080994,9.916311
15869,-0.134067,-0.035111,9.867142
15870,-0.311109,-0.073316,9.804050
15871,-0.105649,-0.082579,9.816088
15872,-0.194664,-0.075421,9.750473
15873,-0.174031,-0.057821,9.881291
15874,-0.157512,-0.105086,9.853966
15875,-0.258966,-0.080624,9.837885
15876,-0.307846,-0.114646,9.749925
15877,-0.398059,-0.108850,9.684363
15878,-0.467196,-0.150742,9.667651
15879,-0.343780,-0.110723,9.846563
15880,-0.022889,-0.077512,10.061765
15881,-0.268933,-0.045624,9.845625
15882,-0.435814,-0.087655,9.834761
15883,-0.360956,-0.072512,9.825791
15884,-0.296997,-0.079927,9.762338
15885,-0.007541,-0.118673,9.862414
15886,0.227911,-0.143101,9.954608
15887,0.020935,-0.143632,9.942060
15888,-0.162236,-0.140073,9.934332
15889,0.030752,-0.190032,9.890764
15890,-0.077307,-0.134927,9.804441
15891,-0.109108,-0.268580,9.808986
15892,-0.046759,-0.214754,10.004642
15893,-0.135041,-0.185387,9.992773
15894,-0.031121,-0.254377,9.929587
15895,-0.084726,-0.094134,9.965816
15896,0.075432,-0.124496,9.943853
15897,0.352109,-0.130324,10.048560
15898,0.408097,-0.112426,10.064707
15899,0.471447,-0.147773,10.124876
15900,0.314685,-0.176651,9.916513
15901,0.268791,-0.255508,9.747458
15902,0.578036,-0.243924,9.734129
15903,0.451601,-0.201601,9.665492
15904,0.381263,-0.283702,9.740877
15905,0.173009,-0.230525,9.481104
15906,0.078413,-0.315264,9.124229
15907,0.140502,-0.269117,9.041328
15908,0.220475,-0.262900,9.257679
15909,0.374476,-0.278161,9.409489
15910,0.157217,-0.176726,9.230813
15911,0.154123,-0.236370,9.345977
15912,0.341705,-0.137461,9.544569
15913,0.563542,-0.123957,9.688398
15914,0.358028,-0.160336,9.719980
15915,0.485468,-0.171059,9.766159
15916,0.605457,-0.152863,9.713416
15917,0.602833,-0.111034,9.490121
15918,0.485910,-0.122886,9.489490
15919,0.381942,-0.054139,9.528816
15920,0.686963,-0.091701,9.729552
15921,0.705941,-0.037596,9.891961
15922,0.737155,-0.033327,10.074506
15923,0.925361,-0.089835,10.352249
15924,0.937575,0.006718,10.494047
15925,0.899776,-0.016475,10.560409
15926,0.764900,-0.038259,10.133070
15927,0.749630,-0.144433,9.991266
15928,0.797746,-0.169584,9.797466
15929,0.675082,-0.227957,9.943036
15930,0.521244,-0.274440,10.108714
15931,0.499773,-0.281312,10.002683
15932,0.285052,-0.273903,9.813021
15933,0.096873,-0.315326,9.696455
15934,0.088404,-0.275089,9.700096
15935,0.317009,-0.253123,9.718695
15936,0.369064,-0.267369,9.750646
15937,0.416833,-0.284579,9.806361
15938,0.283901,-0.227000,9.740762
15939,0.281113,-0.266700,9.833659
15940,0.400450,-0.180264,9.892078
15941,0.274334,-0.255665,9.882844
15942,-0.036098,-0.175519,9.990518
15943,0.007283,-0.220933,10.015243
15944,-0.076414,-0.312848,9.735427
15945,-0.049228,-0.425463,9.571970
15946,-0.006562,-0.401255,9.708077
15947,0.055691,-0.372528,9.873035
15948,0.110633,-0.340851,9.961493
15949,0.281720,-0.335130,9.939505
15950,0.187579,-0.312598,9.775509
15951,0.178729,-0.356539,9.565427
15952,0.316874,-0.374811,9.709705
15953,0.289477,-0.393075,9.752133
15954,0.383519,-0.458219,9.681645
15955,0.258335,-0.472843,9.558563
15956,0.242442,-0.530124,9.496283
15957,0.253006,-0.410527,9.367331
15958,0.229516,-0.400541,9.440999
15959,0.220983,-0.414921,9.588955
15960,0.261444,-0.338732,9.585088
15961,0.292228,-0.298953,9.674373
15962,0.306021,-0.303242,9.904339
15963,0.265781,-0.301577,10.126244
15964,0.270488,-0.292119,10.155666
15965,0.116978,-0.257783,10.036127
15966,-0.007950,-0.261240,9.864593
15967,-0.200435,-0.226119,9.562582
15968,0.173817,-0.272402,9.595779
15969,0.409784,-0.273831,10.015288
15970,0.365604,-0.242343,10.215330
15971,0.347276,-0.307714,10.051326
15972,0.183556,-0.251395,9.855768
15973,0.187392,-0.235053,9.708002
15974,0.306905,-0.279242,9.621283
15975,0.395190,-0.241290,9.392890
15976,0.761906,-0.273822,9.579162
15977,0.966416,-0.242753,9.772526
15978,0.829036,-0.272669,9.819346
15979,0.787614,-0.199563,9.748656
15980,0.834019,-0.139350,9.666780
15981,0.768940,-0.164436,9.727975
15982,0.525551,-0.139461,9.866091
15983,0.314673,-0.107310,10.085684
15984,0.317825,-0.065371,9.992702
15985,0.405296,-0.055406,9.733629
15986,0.499092,-0.046911,9.551373
15987,0.410446,-0.041700,9.436768
15988,0.626724,0.000205,9.660508
15989,0.782950,0.005230,10.069300
15990,0.896665,0.030011,10.297284
15991,0.608612,0.041408,10.321510
15992,0.386838,-0.006478,9.995550
15993,0.121461,-0.090710,9.479809
15994,-0.274849,-0.172103,9.242668
15995,-0.134337,-0.199443,9.139766
15996,0.128099,-0.184604,9.319087
15997,0.452106,-0.132001,9.819338
15998,0.503627,-0.105741,10.038300
15999,0.074562,-0.073273,9.988894
16000,0.142864,-0.101482,9.824697
16001,-0.010347,0.035036,9.693176
16002,0.278005,-0.017733,9.871704
16003,0.607339,0.092098,9.933673
16004,0.589280,0.187574,10.199861
16005,0.839254,0.126607,10.167524
16006,0.598047,0.160379,10.073805
16007,0.568424,0.101455,9.982565
16008,0.723509,0.073399,9.882562
16009,0.539723,-0.024980,9.627014
16010,0.468440,-0.075735,9.477979
16011,0.253217,-0.066815,9.536714
16012,0.063880,-0.152041,9.637755
16013,0.546989,-0.134274,9.717068
16014,1.274513,-0.168515,9.891797
16015,1.053022,-0.165615,10.051232
16016,0.589830,-0.125996,9.836343
16017,0.359190,-0.024198,9.477455
16018,0.073075,-0.050630,9.617212
16019,0.537369,-0.000328,9.903223
16020,0.329838,0.039518,10.044269
16021,0.311515,-0.120246,9.942908
16022,0.441157,-0.105446,9.823796
16023,0.124640,0.027370,9.625604
16024,0.282960,-0.140739,9.688091
16025,0.017059,-0.051416,9.848407
16026,0.133031,-0.052149,9.978000
16027,0.127786,-0.075978,9.900103
16028,0.121141,-0.104776,9.845709
16029,-0.019180,-0.099075,9.437762
16030,0.102469,-0.230320,9.472984
16031,0.050709,-0.180263,9.801424
16032,0.007387,-0.151486,10.128731
16033,-0.248857,-0.024426,10.193276
16034,-0.236931,0.064352,10.185314
16035,-0.241817,-0.015153,10.045534
16036,-0.315596,-0.018615,9.849897
16037,-0.516585,-0.030217,9.725036
16038,-0.294980,-0.087034,9.639762
16039,-0.218884,-0.058863,9.812929
16040,-0.330857,-0.084796,9.859119
16041,-0.305199,-0.140289,9.578023
16042,-0.120427,-0.100472,9.449369
16043,-0.312771,-0.082980,9.586129
16044,-0.325694,0.044676,9.781015
16045,-0.164740,0.120315,9.932569
16046,-0.326266,0.158903,9.927493
16047,-0.274204,0.106955,9.907438
16048,-0.144259,0.169666,9.922501
16049,-0.115269,0.133436,9.873574
16050,-0.239992,0.075684,9.911832
16051,-0.217122,0.119430,9.771573
16052,-0.228621,0.063192,9.709789
16053,-0.241277,0.032364,9.702389
16054,-0.235567,-0.021996,9.848134
16055,-0.137682,-0.025980,9.795123
16056,-0.055047,0.013084,9.820999
16057,-0.100857,-0.030726,9.753604
16058,-0.197410,0.011728,9.636178
16059,-0.281971,-0.001191,9.741566
16060,-0.345869,0.020837,9.907766
16061,-0.419358,0.015140,9.966010
16062,-0.345747,0.047351,10.039040
16063,-0.301163,0.016353,9.943341
16064,-0.311709,0.017239,9.712302
16065,-0.329747,0.035194,9.659719
16066,-0.282332,-0.002083,9.741555
16067,-0.197092,0.013939,9.612555
16068,-0.196768,0.007383,9.790099
16069,-0.349044,0.022565,9.706478
16070,-0.311157,0.040270,9.719368
16071,-0.362354,0.011032,9.907193
16072,-0.446562,0.028232,9.865550
16073,-0.401917,-0.002338,9.746165
16074,-0.352034,-0.009804,9.758326
16075,-0.435297,-0.023155,9.762793
16076,-0.398437,-0.065377,9.868009
16077,-0.284518,-0.017616,9.954523
16078,-0.377127,0.018454,10.014314
16079,-0.408625,0.005430,9.954108
16080,-0.417485,-0.027448,9.946695
16081,-0.369990,-0.035045,9.905621
16082,-0.427904,-0.085779,9.730971
16083,-0.369702,-0.111245,9.588355
16084,-0.289658,-0.132499,9.629786
16085,-0.262036,-0.042100,9.675821
16086,-0.238442,-0.029971,9.658843
16087,-0.190700,-0.033528,9.671023
16088,-0.263899,0.068148,9.745933
16089,-0.415995,0.057099,9.784717
16090,-0.355493,0.081316,9.982005
16091,-0.457021,0.062820,10.056607
16092,-0.429665,0.075675,10.039811
16093,-0.340029,0.037537,9.903135
16094,-0.370084,-0.024966,9.657025
16095,-0.327987,-0.061820,9.584941
16096,-0.257943,-0.086422,9.572923
16097,-0.323786,-0.061747,9.561393
16098,-0.426355,-0.027495,9.644475
16099,-0.314846,-0.008409,9.854200
16100,-0.408752,0.028528,9.990702
16101,-0.426898,-0.057241,9.974385
16102,-0.401733,-0.070207,9.903024
16103,-0.357521,-0.048243,9.815900
16104,-0.340836,-0.038403,9.745512
16105,-0.367005,-0.081576,9.885279
16106,-0.426040,-0.080723,9.896178
16107,-0.442842,-0.030587,9.797507
16108,-0.427522,-0.101810,9.764708
16109,-0.421437,-0.047069,9.850320
16110,-0.519790,0.020120,9.810293
16111,-0.457719,-0.008230,9.922519
16112,-0.353247,0.012311,9.925102
16113,-0.358454,-0.037906,9.762665
16114,-0.383661,-0.019417,9.656508
16115,-0.296664,-0.059097,9.620364
16116,-0.294924,0.021765,9.683286
16117,-0.322630,0.115043,9.817373
16118,-0.371321,0.040619,9.896068
16119,-0.415123,0.048652,9.937151
16120,-0.478330,0.021469,9.917200
16121,-0.309594,-0.006290,9.776243
16122,-0.312990,-0.009932,9.799790
16123,-0.320926,-0.037142,9.691795
16124,-0.333967,0.011121,9.670085
16125,-0.234179,0.050532,9.827341
16126,-0.311172,0.016234,9.854306
16127,-0.443243,0.015410,9.745676
16128,-0.492511,0.017565,9.810278
16129,-0.531805,-0.002915,9.874017
16130,-0.452886,-0.048863,9.861283
16131,-0.263823,-0.044275,9.781297
16132,-0.342862,-0.104673,9.676762
16133,-0.303543,-0.036205,9.721955
16134,-0.344902,-0.084820,9.831757
16135,-0.337787,0.022694,9.925621
16136,-0.299551,-0.011103,9.853494
16137,-0.413763,-0.031136,9.720635
16138,-0.460439,0.001154,9.739232
16139,-0.441438,0.007209,9.846376
