PacketCounter,Acc_X,Acc_Y,Acc_Z
37254,9.814361,-0.196974,-0.248903
37255,9.844803,-0.206138,-0.269316
37256,9.828087,-0.257903,-0.245503
37257,9.806428,-0.236075,-0.263704
37258,9.832848,-0.188701,-0.272873
37259,9.794721,-0.215311,-0.261122
37260,9.862671,-0.194848,-0.210737
37261,9.819500,-0.148035,-0.242894
37262,9.840974,-0.169938,-0.232889
37263,9.842418,-0.187456,-0.268343
37264,9.839647,-0.151912,-0.296550
37265,9.841991,-0.189633,-0.282103
37266,9.844801,-0.226168,-0.348039
37267,9.831529,-0.189765,-0.316224
37268,9.842885,-0.211011,-0.329020
37269,9.851322,-0.196844,-0.282158
37270,9.782903,-0.216665,-0.338802
37271,9.851052,-0.197424,-0.291030
37272,9.830705,-0.192322,-0.339429
37273,9.842088,-0.212384,-0.351226
37274,9.840569,-0.194803,-0.324945
37275,9.809970,-0.188163,-0.312845
37276,9.857986,-0.163877,-0.308002
37277,9.828720,-0.175661,-0.326694
37278,9.840082,-0.196646,-0.338320
37279,9.800640,-0.205897,-0.378580
37280,9.848655,-0.182135,-0.373507
37281,9.819394,-0.194235,-0.390595
37282,9.810521,-0.211571,-0.362416
37283,9.839667,-0.201937,-0.347130
37284,9.828198,-0.183373,-0.337961
37285,9.848537,-0.189130,-0.373147
37286,9.845891,-0.156185,-0.312769
37287,9.820647,-0.224004,-0.335432
37288,9.821892,-0.245403,-0.284593
37289,9.830650,-0.231031,-0.315149
37290,9.839387,-0.215783,-0.346741
37291,9.817657,-0.193248,-0.363613
37292,9.829055,-0.213573,-0.372851
37293,9.830310,-0.231275,-0.403129
37294,9.858245,-0.202437,-0.357869
37295,9.817667,-0.193128,-0.363416
37296,9.845592,-0.165187,-0.317515
37297,9.835453,-0.165312,-0.258211
37298,9.820217,-0.233685,-0.341358
37299,9.830266,-0.237900,-0.321932
37300,9.851768,-0.261331,-0.310961
37301,9.830001,-0.238104,-0.329791
37302,9.837424,-0.203100,-0.334239
37303,9.828313,-0.216155,-0.390512
37304,9.835741,-0.180339,-0.394148
37305,9.825648,-0.177531,-0.339393
37306,9.865852,-0.184853,-0.417611
37307,9.807597,-0.207440,-0.369855
37308,9.827659,-0.210797,-0.409444
37309,9.837889,-0.211810,-0.389112
37310,9.807487,-0.203321,-0.375031
37311,9.846627,-0.191837,-0.419298
37312,9.835249,-0.169920,-0.410696
37313,9.851522,-0.119056,-0.438216
37314,9.845622,-0.171613,-0.386408
37315,9.825475,-0.168502,-0.348878
37316,9.863356,-0.142968,-0.363952
37317,9.817790,-0.206264,-0.351858
37318,9.826340,-0.192427,-0.383852
37319,9.836043,-0.195393,-0.445621
37320,9.835958,-0.196527,-0.447001
37321,9.835991,-0.197104,-0.446030
37322,9.815971,-0.193768,-0.406348
37323,9.855577,-0.186819,-0.366469
37324,9.825243,-0.182049,-0.348604
37325,9.815032,-0.181780,-0.368249
37326,9.855696,-0.193898,-0.359543
37327,9.829098,-0.243666,-0.351894
37328,9.788431,-0.236079,-0.358241
37329,9.818863,-0.243075,-0.372351
37330,9.827976,-0.227593,-0.319687
37331,9.847011,-0.212760,-0.326728
37332,9.835575,-0.191352,-0.320399
37333,9.846917,-0.210286,-0.331110
37334,9.825124,-0.186179,-0.349774
37335,9.836351,-0.205105,-0.363330
37336,9.847551,-0.223905,-0.377498
37337,9.843977,-0.169965,-0.295804
37338,9.870928,-0.263978,-0.250094
37339,9.853295,-0.297980,-0.207761
37340,10.033252,-0.454287,-0.198507
37341,10.102291,-0.495166,-0.241719
37342,10.835630,-0.554314,-0.434664
37343,13.968753,1.645037,-1.749368
37344,14.714077,1.346080,-2.094086
37345,14.081486,0.330348,-2.185679
37346,14.163337,0.512201,-1.819638
37347,14.415365,0.748475,-1.565455
37348,14.463183,0.688214,-1.653168
37349,14.342986,0.435929,-1.653133
37350,14.386864,0.242143,-1.865261
37351,14.720948,0.276657,-2.554877
37352,15.217744,0.665606,-2.621454
37353,15.430855,0.974489,-2.058854
37354,15.644841,1.007820,-1.553228
37355,15.727070,0.729942,-1.179299
37356,16.059753,1.128107,-0.760044
37357,16.285331,1.587202,0.186668
37358,16.315131,1.988825,0.804337
37359,16.626045,2.001136,0.611061
37360,16.863717,2.103583,0.589436
37361,16.651158,1.101539,0.561774
37362,15.565384,0.580518,1.138166
37363,14.284926,0.973528,1.173871
37364,13.630880,0.545119,1.067872
37365,12.804646,0.236578,1.055461
37366,12.367596,-0.093389,1.124716
37367,12.463871,-0.055091,0.993295
37368,12.129529,-0.074905,0.529767
37369,11.364258,0.448053,1.043352
37370,10.289529,0.786314,1.046546
37371,9.199397,0.703473,1.136649
37372,8.544433,0.642411,0.937505
37373,7.963749,0.555749,0.922206
37374,7.520594,0.536520,1.568510
37375,7.184851,0.662043,1.579796
37376,6.514386,0.471442,0.927426
37377,5.503438,0.346387,0.269216
37378,4.648829,0.308042,-0.137882
37379,4.044312,0.477335,-0.598234
37380,3.033833,0.365482,-0.700407
37381,2.770375,0.163554,-0.237610
37382,2.514219,0.115528,-0.772533
37383,2.868555,0.286079,-1.150947
37384,3.450014,0.331848,-1.457527
37385,3.427941,0.342529,-1.390683
37386,3.418955,0.951844,-1.042901
37387,3.426251,1.145809,-1.135021
37388,3.605639,1.194580,-0.524481
37389,3.989768,1.522551,-0.277823
37390,4.417029,1.603653,-0.235338
37391,4.554743,1.743744,0.218702
37392,4.888007,1.909361,0.426013
37393,5.498191,2.227761,0.699515
37394,6.007593,2.370996,0.223285
37395,6.330350,2.358980,0.025552
37396,6.606173,2.337921,-0.110740
37397,6.666172,2.349134,-0.376900
37398,6.711455,2.314374,-0.335582
37399,6.888083,2.212510,-0.500086
37400,7.031744,2.394197,-0.348172
37401,7.321952,1.912972,-0.630130
37402,7.664005,2.084062,-0.622850
37403,7.675869,2.009204,-0.686054
37404,7.805884,1.963070,-1.060302
37405,8.163741,2.180373,-1.117662
37406,8.564191,2.065813,-1.299528
37407,9.019582,2.050443,-1.325598
37408,9.339909,2.200243,-1.280049
37409,8.920055,2.166626,-1.503694
37410,8.449045,1.927108,-1.056319
37411,8.254030,2.163379,-0.854331
37412,7.723661,2.130614,-0.845626
37413,7.073443,2.016842,-0.671441
37414,6.611275,1.969609,-0.614896
37415,6.465914,1.799915,-0.496010
37416,6.425911,1.812356,-0.793978
37417,6.658596,1.619753,-0.737609
37418,6.926993,1.564178,-0.896392
37419,6.458155,1.365946,-1.428165
37420,5.543578,1.123151,-1.311631
37421,4.927220,0.934382,-1.014138
37422,4.900511,0.955011,-0.314067
37423,5.396148,1.086652,-0.153415
37424,5.488314,0.717233,-0.578484
37425,5.517205,0.423036,-0.688290
37426,6.137418,0.288299,-0.151323
37427,7.275359,0.287423,0.187966
37428,7.466259,0.171080,-0.896523
37429,7.036917,0.006935,-0.856766
37430,7.078713,0.117913,-0.303391
37431,6.811723,-0.102875,0.133974
37432,7.210398,0.178302,1.112072
37433,9.283546,0.857063,1.623902
37434,10.144349,0.821775,0.715591
37435,9.945945,0.724318,0.629137
37436,8.909759,0.447228,-0.303047
37437,8.052308,0.176396,0.389533
37438,7.946530,0.723573,0.869196
37439,7.759258,0.763433,0.467418
37440,7.624961,0.450712,0.343284
37441,7.752762,0.471719,0.644055
37442,8.582785,0.524548,0.957969
37443,9.152958,0.750587,0.889405
37444,9.616719,1.006017,1.304335
37445,10.276554,1.417228,1.183916
37446,9.028599,0.825487,0.873634
37447,8.627461,0.130659,1.349569
37448,8.632233,-0.705710,1.430755
37449,8.957830,-0.764049,2.178290
37450,9.418459,-0.382437,2.167267
37451,10.278565,-0.871192,1.185911
37452,12.225240,0.411293,0.610261
37453,13.002594,0.184322,0.398393
37454,14.083218,0.565554,1.194526
37455,13.829972,0.691408,1.227635
37456,13.314619,-0.690320,1.493979
37457,13.712135,-0.693399,1.316085
37458,14.725070,0.222616,0.707430
37459,15.676060,0.976562,0.156183
37460,15.581525,0.515753,-0.629110
37461,15.799812,0.226974,-1.137719
37462,16.581058,0.659431,-1.595043
37463,16.854623,1.441971,-1.609069
37464,16.032471,1.468204,-1.377778
37465,15.034215,0.932014,-1.038235
37466,14.103807,0.685066,-0.993438
37467,14.348142,1.318688,-0.596745
37468,13.671658,1.109016,-1.366220
37469,12.512537,0.097953,-1.518368
37470,12.069055,0.160753,-1.441135
37471,11.783397,0.424596,-1.191717
37472,11.516266,0.423291,-0.926990
37473,11.021390,-0.047827,-1.236141
37474,11.122411,0.118682,-1.182459
37475,10.969408,0.237568,-1.234931
37476,10.369367,-0.343484,-1.264389
37477,10.407233,-0.054337,-0.871516
37478,10.453589,0.394641,-0.569186
37479,10.267655,0.328460,-0.583728
37480,9.919222,0.050150,-0.525987
37481,9.987290,0.286995,-0.100380
37482,10.092729,0.333804,0.117125
37483,10.065609,0.170458,-0.203436
37484,10.071048,0.096452,-0.253471
37485,10.012061,-0.048210,-0.362114
37486,9.909573,-0.016880,-0.230150
37487,9.799446,-0.016746,-0.174992
37488,9.685355,-0.091395,-0.016929
37489,9.776269,-0.111105,-0.138816
37490,9.915898,-0.244528,-0.356031
37491,10.147090,-0.010264,-0.535351
37492,10.189160,-0.038286,-0.556835
37493,10.010771,-0.186463,-0.305798
37494,10.159017,0.096925,-0.201244
37495,10.160324,-0.050126,-0.417839
37496,10.171727,-0.068287,-0.429388
37497,10.328427,0.231479,-0.354466
37498,10.406714,0.253687,-0.365645
37499,10.064874,-0.103107,-0.478499
37500,9.601826,-0.570513,-0.712316
37501,9.662131,-0.444332,-0.640415
37502,9.733383,-0.335244,-0.658370
37503,9.783097,-0.332706,-0.600141
37504,10.062533,0.055655,-0.428332
37505,9.754408,-0.093863,-0.360931
37506,9.471262,-0.312344,-0.451253
37507,9.680985,-0.059356,-0.483724
37508,9.805881,0.000736,-0.532741
37509,9.725140,-0.114763,-0.374861
37510,9.735949,-0.124353,-0.270752
37511,9.742751,-0.091388,-0.351824
37512,9.719432,-0.047984,-0.148916
37513,9.715265,0.137871,-0.042653
37514,9.763482,0.158383,-0.035541
37515,9.816275,0.113942,-0.144911
37516,9.825626,-0.020628,-0.381477
37517,9.740348,-0.087215,-0.484270
37518,9.940253,0.053502,-0.261609
37519,9.968840,0.206226,-0.230848
37520,9.778941,0.074668,-0.244158
37521,9.899387,-0.068041,-0.375141
37522,10.012480,0.020671,-0.494407
37523,10.487679,0.085006,-0.620016
37524,10.023755,0.292086,-0.356114
37525,9.837888,-0.255727,-0.411908
37526,9.926904,0.143612,-0.140197
37527,9.837703,-0.111803,-0.291418
37528,9.830739,-0.024237,-0.217340
37529,9.800239,-0.007459,-0.362657
37530,9.851029,-0.140059,-0.323274
37531,9.842546,-0.033859,-0.217855
37532,9.832527,-0.147950,-0.306407
37533,9.887953,-0.082484,-0.375873
37534,9.838450,-0.092159,-0.272442
37535,9.811059,-0.118236,-0.312934
37536,9.861377,-0.220655,-0.561698
37537,9.850170,-0.196305,-0.630520
37538,9.785707,-0.273731,-0.618888
37539,9.949111,0.025958,-0.330194
37540,9.717826,0.034001,-0.249591
37541,9.828633,-0.086380,-0.452269
37542,9.854760,-0.048198,-0.288868
37543,9.844862,-0.044341,-0.303678
37544,9.781530,0.098915,-0.000283
37545,9.741530,-0.000608,-0.153579
37546,9.959025,0.493249,0.150030
37547,9.879865,0.228462,0.264234
37548,9.824427,0.009491,-0.274298
37549,9.868760,0.044255,0.014552
37550,9.831159,0.048838,-0.181657
37551,9.847604,0.078429,-0.077671
