PacketCounter,Acc_X,Acc_Y,Acc_Z
43845,9.819618,-0.204813,0.742327
43846,9.822659,-0.225003,0.803709
43847,9.829959,-0.187184,0.817840
43848,9.803929,-0.217428,0.776688
43849,9.780880,-0.281374,0.650029
43850,9.838707,-0.149904,0.667979
43851,9.802245,-0.258407,0.645828
43852,9.808182,-0.240399,0.675483
43853,9.817420,-0.240209,0.763294
43854,9.825315,-0.259401,0.864623
43855,9.803290,-0.229860,0.781162
43856,9.838739,-0.216727,0.760543
43857,9.809299,-0.226871,0.662493
43858,9.800401,-0.287292,0.663660
43859,9.777459,-0.333453,0.683357
43860,9.801787,-0.250193,0.797049
43861,9.815275,-0.187172,0.839775
43862,9.829308,-0.197123,0.823314
43863,9.851054,-0.168521,0.816602
43864,9.832946,-0.156612,0.783256
43865,9.802739,-0.259048,0.638020
43866,9.783075,-0.267863,0.619709
43867,9.810823,-0.221078,0.641549
43868,9.788038,-0.267480,0.659945
43869,9.829268,-0.232806,0.672082
43870,9.815053,-0.219541,0.692859
43871,9.868455,-0.144644,0.761404
43872,9.820595,-0.200476,0.728440
43873,9.806478,-0.190420,0.746406
43874,9.810556,-0.208216,0.649429
43875,9.801178,-0.271473,0.656571
43876,9.779292,-0.226469,0.718376
43877,9.849129,-0.287677,0.635798
43878,9.820054,-0.194715,0.879552
43879,9.832968,-0.137591,0.927391
43880,9.771709,-0.326653,0.797315
43881,9.800811,-0.260817,0.805603
43882,9.799638,-0.280093,0.817382
43883,9.796644,-0.260376,0.756915
43884,9.818455,-0.231646,0.749774
43885,9.809216,-0.230984,0.662300
43886,9.806557,-0.268118,0.690679
43887,9.830635,-0.200476,0.660639
43888,9.836474,-0.179456,0.692682
43889,9.831617,-0.166003,0.797867
43890,9.828442,-0.207039,0.831188
43891,9.822162,-0.229827,0.805083
43892,9.802207,-0.239643,0.791747
43893,9.804003,-0.294487,0.718646
43894,9.766816,-0.271115,0.664882
43895,9.835709,-0.189689,0.700762
43896,9.812500,-0.236431,0.722816
43897,9.813201,-0.145539,0.769995
43898,9.796395,-0.245009,0.762495
43899,9.808778,-0.277124,0.762723
43900,9.828470,-0.196806,0.830831
43901,9.816506,-0.236516,0.773402
43902,9.818281,-0.216860,0.754482
43903,9.789365,-0.211232,0.796098
43904,9.789941,-0.283397,0.735861
43905,9.825619,-0.268116,0.713237
43906,9.811953,-0.254500,0.726159
43907,9.792280,-0.247214,0.855837
43908,9.848445,-0.148975,0.749483
43909,9.807074,-0.257721,0.685108
43910,9.800561,-0.207627,0.715484
43911,9.778956,-0.308563,0.666438
43912,9.810780,-0.261871,0.739259
43913,9.810001,-0.190083,0.801951
43914,9.799059,-0.269476,0.823855
43915,9.813796,-0.191517,0.853485
43916,9.846017,-0.218359,0.866573
43917,9.785946,-0.243002,0.830928
43918,9.793834,-0.277971,0.786451
43919,9.786355,-0.318638,0.771914
43920,9.795492,-0.259382,0.769315
43921,9.823126,-0.212042,0.793679
43922,9.798496,-0.220357,0.739554
43923,9.818414,-0.213835,0.752417
43924,9.802933,-0.221307,0.783535
43925,9.818583,-0.271413,0.838427
43926,9.825162,-0.248378,0.861317
43927,9.778174,-0.300603,0.818120
43928,9.815415,-0.266138,0.780294
43929,9.817204,-0.246560,0.761316
43930,9.812795,-0.247138,0.715185
43931,9.782440,-0.260432,0.772332
43932,9.797910,-0.252900,0.740126
43933,9.788906,-0.238330,0.796707
43934,9.811923,-0.190414,0.777994
43935,9.819772,-0.222224,0.733218
43936,9.827467,-0.182447,0.744650
43937,9.787403,-0.198370,0.720344
43938,9.815023,-0.225646,0.690015
43939,9.816185,-0.208459,0.678367
43940,9.724950,-0.100892,0.819235
43941,9.835677,-0.199802,0.698400
43942,9.792663,-0.322406,0.652999
43943,9.850339,-0.172786,0.822500
43944,9.825488,-0.237454,0.860683
43945,9.848454,-0.248830,0.931727
43946,9.815184,-0.301937,1.017512
43947,9.807389,-0.360733,1.007877
43948,9.850955,-0.324728,0.997055
43949,10.012094,-0.593679,0.862385
43950,10.102031,-0.849430,0.810843
43951,11.970040,-0.216571,0.700967
43952,13.397122,-0.507291,-0.402952
43953,12.754157,-0.641438,0.812025
43954,12.181122,-0.884264,1.165312
43955,13.101210,-0.724550,0.888793
43956,14.822913,-1.343875,0.028531
43957,17.202738,-0.997435,-0.563239
43958,18.100629,-0.379494,0.255202
43959,18.059664,-0.867849,0.093024
43960,18.329598,-0.831049,0.252828
43961,19.338340,-0.418841,0.305555
43962,19.844954,-0.166349,0.038908
43963,19.570781,0.000530,-0.004003
43964,18.743618,0.437349,0.247010
43965,17.247635,0.387357,0.241296
43966,15.947396,0.103234,0.177746
43967,14.958376,0.268255,0.353130
43968,14.311841,0.611164,0.505507
43969,13.363791,0.852874,0.783132
43970,11.932573,0.911930,1.120087
43971,10.964089,1.043328,1.412089
43972,10.726491,1.360100,1.443053
43973,11.038101,1.300706,0.878077
43974,11.080564,1.198433,0.180033
43975,9.729147,0.572979,0.105996
43976,8.399260,0.320526,0.071387
43977,7.599884,0.513074,0.267398
43978,7.101488,0.983904,0.616638
43979,6.562489,0.925204,0.584529
43980,6.114713,0.969008,0.586405
43981,5.960282,0.930171,0.157856
43982,6.883781,0.771042,-0.562458
43983,8.019120,0.467365,-2.359636
43984,7.211077,-0.248440,-2.507224
43985,6.789410,-0.488414,-2.610903
43986,6.781294,-0.085218,-2.399531
43987,6.366466,0.438077,-1.363766
43988,5.653082,0.697263,-1.065315
43989,4.628414,0.912550,-0.409962
43990,4.154678,1.454336,-0.136153
43991,4.091262,1.413750,-0.504278
43992,4.494794,1.247732,-1.487068
43993,4.375587,1.168003,-2.021386
43994,4.349214,1.190795,-2.095488
43995,4.604673,1.435137,-2.365147
43996,4.432261,1.418470,-2.242747
43997,4.271193,1.741606,-2.162466
43998,4.292678,2.149217,-2.228108
43999,4.340796,2.144521,-2.486980
44000,4.319970,2.127080,-2.657931
44001,3.895804,1.941125,-2.771958
44002,3.991444,1.715840,-2.902895
44003,4.510142,2.011751,-2.967777
44004,5.037900,2.205876,-3.047762
44005,5.043994,1.843223,-3.306156
44006,5.167313,1.874887,-3.295575
44007,5.673984,1.966309,-3.339072
44008,6.180052,2.088483,-3.479061
44009,6.265974,1.939528,-3.303973
44010,6.822056,2.091632,-3.211561
44011,7.492427,2.003618,-3.397026
44012,7.942894,1.831509,-3.529214
44013,8.348166,1.719062,-3.617784
44014,8.632044,1.872937,-3.466984
44015,8.896630,2.031256,-3.243319
44016,9.082953,2.244703,-3.073506
44017,9.299701,2.196428,-3.261223
44018,9.364705,2.046167,-3.242620
44019,9.583180,1.808853,-3.181259
44020,9.888096,1.849421,-2.829123
44021,10.102480,1.923473,-2.562252
44022,10.055212,1.860285,-2.441054
44023,9.453728,1.620360,-2.322172
44024,8.475597,1.302230,-1.968859
44025,7.430177,1.042108,-1.728604
44026,6.324366,0.923415,-1.461091
44027,5.230885,0.674201,-1.563326
44028,4.006551,0.519833,-1.707085
44029,3.076096,-0.063823,-2.061073
44030,2.999477,-0.370455,-2.713764
44031,3.847245,-0.232573,-3.613197
44032,4.409112,-0.036854,-3.745839
44033,4.723491,-0.029636,-3.710818
44034,4.848608,0.354187,-3.289034
44035,4.895038,0.740695,-2.672326
44036,5.047427,1.027527,-2.045144
44037,5.287721,1.446348,-1.605091
44038,4.622108,1.714969,-0.872454
44039,3.594502,1.638118,-0.347105
44040,3.491767,1.493127,-0.509978
44041,6.136859,1.832769,-1.100769
44042,8.713439,1.786418,-2.026664
44043,9.729300,1.565895,-2.156470
44044,10.522753,1.269017,-2.881175
44045,10.010436,1.365435,-2.507863
44046,9.179771,1.819267,-1.609577
44047,8.559803,1.977462,-0.643233
44048,8.766438,2.234996,-0.052258
44049,8.877474,1.985460,0.488921
44050,9.417218,2.020588,0.643125
44051,10.153446,1.897189,0.026361
44052,10.107665,1.534218,-0.441633
44053,9.919913,1.209695,-0.653060
44054,10.860437,1.418489,-0.659585
44055,11.765722,1.251809,-0.954103
44056,11.982145,1.012846,-0.779951
44057,11.660222,0.752352,-0.272804
44058,11.297963,1.048886,0.129969
44059,10.940602,1.125051,0.544217
44060,10.545771,0.995370,0.587436
44061,10.552719,1.012061,0.500886
44062,10.205969,0.907527,0.663801
44063,10.400115,0.895768,0.710226
44064,11.314877,0.781028,0.519332
44065,12.266060,0.872119,0.619947
44066,13.250822,0.961832,0.718903
44067,13.866382,0.770311,0.618735
44068,14.516396,0.758845,0.435927
44069,14.924298,0.623154,0.522263
44070,15.240743,0.623911,1.089929
44071,16.463792,0.826368,0.980260
44072,16.798744,0.956798,0.889943
44073,16.397663,0.738054,0.843316
44074,15.500582,0.478329,0.643393
44075,14.353350,0.391927,0.542368
44076,13.298712,0.181911,0.410616
44077,12.639886,0.044545,0.164894
44078,12.105252,0.005140,-0.016607
44079,11.683204,0.024018,0.200863
44080,11.062567,-0.086749,0.166217
44081,10.628422,0.253235,0.820516
44082,10.167368,0.205333,0.893774
44083,9.965013,0.302212,1.260494
44084,9.561319,0.060701,0.786508
44085,10.917116,-0.212785,0.795160
44086,12.312272,0.108778,-0.056503
44087,12.428706,0.489745,1.115768
44088,12.207202,0.360605,0.689215
44089,11.640824,0.479983,1.053340
44090,11.173349,0.387918,1.042546
44091,10.785165,0.072327,0.642710
44092,10.139723,0.063535,0.687513
44093,9.520192,0.080502,0.770274
44094,9.297876,-0.046935,0.522736
44095,8.898391,-0.087499,0.313479
44096,8.559307,-0.085709,0.524123
44097,8.666384,-0.127684,0.560645
44098,9.150195,-0.117162,0.479024
44099,9.523961,-0.067321,0.456940
44100,9.984595,-0.060530,0.464660
44101,10.434432,-0.051219,0.386583
44102,10.618099,-0.005757,0.385912
44103,10.568921,0.143620,0.518131
44104,10.263008,0.162244,0.567096
44105,9.879677,0.073361,0.666335
44106,9.558913,-0.022484,0.713876
44107,9.577128,-0.093297,0.772604
44108,9.831690,-0.053164,0.659242
44109,9.853603,-0.095540,0.589404
44110,9.831154,0.065462,0.773335
44111,9.850191,0.125718,0.591733
44112,9.778449,0.017336,0.420032
44113,9.557433,-0.132322,0.226350
44114,9.513046,-0.060689,0.452369
44115,9.670774,-0.104816,0.343190
44116,9.749235,0.025406,0.620320
44117,9.855983,0.133424,0.864766
44118,10.033828,0.097537,0.770450
44119,10.020738,-0.130861,0.521652
44120,10.190538,-0.133163,0.483867
44121,10.331130,0.051851,0.325259
44122,9.927185,-0.106168,0.463415
44123,9.729164,-0.189783,0.500394
44124,9.744623,0.048684,0.627441
44125,9.697251,-0.005703,0.585216
44126,9.797650,-0.081142,0.607340
44127,10.044137,0.076842,0.587794
44128,9.969083,0.047554,0.586361
44129,9.853849,-0.095124,0.419205
44130,9.860620,-0.124558,0.379034
44131,9.862269,0.077332,0.459001
44132,9.754018,-0.045602,0.319856
44133,9.487357,-0.209765,0.330766
44134,9.534432,-0.105550,0.442401
44135,9.689314,-0.017787,0.578906
44136,10.097947,0.078552,0.521818
44137,10.241953,0.161730,0.476627
44138,10.118850,0.131938,0.510943
44139,10.002403,0.053776,0.513487
44140,9.785481,-0.109470,0.388804
44141,9.662934,-0.114341,0.413158
44142,9.759094,-0.007859,0.392019
44143,9.683000,-0.003315,0.476542
44144,9.642085,0.055047,0.514708
44145,9.825271,0.113957,0.520642
44146,10.152854,0.095245,0.375437
44147,10.236139,0.068830,0.252341
44148,10.079494,0.154298,0.324745
44149,9.807321,0.174647,0.382620
44150,9.602192,0.145596,0.456746
44151,9.534001,0.048496,0.440073
44152,9.527019,0.013013,0.431830
44153,9.523769,-0.015158,0.565028
44154,9.615685,0.013051,0.697497
44155,9.843941,0.153513,0.825011
44156,10.014562,0.170562,0.773606
44157,10.030976,0.056162,0.614036
44158,10.083703,0.107493,0.693594
44159,10.052869,0.140813,0.570419
44160,9.788230,0.012892,0.550345
44161,9.687966,-0.225165,0.421135
44162,9.948804,0.005010,0.335869
44163,9.913285,0.062104,0.416772
44164,9.685972,0.052938,0.565084
44165,9.630760,0.122412,0.618411
44166,9.656447,0.130327,0.673515
44167,9.737290,0.070085,0.676537
44168,9.833461,0.057663,0.620454
44169,9.854552,-0.005639,0.574491
