PacketCounter,Acc_X,Acc_Y,Acc_Z
58115,9.805355,-0.101424,0.788565
58116,9.806257,-0.120788,0.767260
58117,9.784172,-0.148127,0.807334
58118,9.807382,-0.137172,0.860642
58119,9.805004,-0.114219,0.903133
58120,9.809574,-0.158516,0.934762
58121,9.800438,-0.116257,0.866142
58122,9.809625,-0.130951,0.817913
58123,9.797098,-0.126582,0.809325
58124,9.810066,-0.133167,0.812243
58125,9.800745,-0.154860,0.862558
58126,9.813639,-0.116574,0.871695
58127,9.805414,-0.145541,0.904514
58128,9.796138,-0.137556,0.836593
58129,9.805605,-0.107504,0.788596
58130,9.819146,-0.112656,0.784674
58131,9.800258,-0.126930,0.770057
58132,9.812298,-0.116909,0.795539
58133,9.818873,-0.142507,0.793181
58134,9.820026,-0.116616,0.772998
58135,9.806131,-0.138931,0.786801
58136,9.818316,-0.136425,0.805242
58137,9.804145,-0.115041,0.827834
58138,9.811467,-0.113910,0.810536
58139,9.812433,-0.132483,0.787207
58140,9.797357,-0.139454,0.826166
58141,9.803725,-0.121388,0.831892
58142,9.811150,-0.119763,0.813516
58143,9.798701,-0.124377,0.798139
58144,9.823863,-0.129283,0.819119
58145,9.796136,-0.130687,0.851056
58146,9.809935,-0.145521,0.838369
58147,9.805599,-0.145440,0.796421
58148,9.806118,-0.101214,0.796480
58149,9.820819,-0.131833,0.760374
58150,9.795163,-0.122288,0.750246
58151,9.812864,-0.129861,0.790981
58152,9.810220,-0.134083,0.846618
58153,9.811309,-0.151230,0.821100
58154,9.800260,-0.126930,0.782883
58155,9.822865,-0.119538,0.722038
58156,9.808910,-0.141888,0.736385
58157,9.832348,-0.121087,0.797933
58158,9.816973,-0.127870,0.841394
58159,9.799336,-0.179667,0.929035
58160,9.806104,-0.187438,0.788129
58161,9.818787,-0.162548,0.663949
58162,9.827397,-0.090577,0.047374
58163,10.016272,-0.040043,0.064034
58164,11.787979,0.952526,0.347877
58165,16.050937,0.164594,0.788172
58166,19.046674,-0.459609,1.058039
58167,21.009684,-0.006286,1.014930
58168,20.624487,0.426397,1.067283
58169,19.659707,1.081883,1.197895
58170,18.052357,1.511173,1.423634
58171,16.636089,1.715320,1.621551
58172,14.593197,1.661398,1.796332
58173,12.707339,1.831038,2.288959
58174,11.184643,1.936574,2.678022
58175,9.832429,1.725200,2.471223
58176,8.158090,1.390454,2.101706
58177,6.539631,1.204439,1.691464
58178,4.851385,0.753331,0.928387
58179,3.124437,0.341222,0.219568
58180,2.423349,0.687106,0.066933
58181,2.154203,0.961414,0.119808
58182,2.431360,0.674894,-0.161747
58183,2.763152,0.586507,-0.194591
58184,2.766866,0.603299,-0.693854
58185,3.466538,0.639014,-1.095090
58186,4.668742,0.737675,-1.186761
58187,5.332055,0.771862,-1.195162
58188,5.728302,0.666650,-1.446988
58189,6.314004,0.868864,-0.959732
58190,6.684584,0.943399,-0.523307
58191,6.617751,0.745476,-0.397151
58192,6.009163,0.539926,-0.583542
58193,5.348011,0.347869,-0.879783
58194,4.210069,0.342522,-1.014955
58195,2.821653,0.561590,-0.948795
58196,1.532449,0.810002,-0.548730
58197,0.729851,1.057402,-0.129290
58198,0.406340,0.929436,0.149182
58199,1.135997,0.643502,0.514854
58200,3.437817,-0.318909,1.012946
58201,5.281734,-1.196402,1.752829
58202,6.913484,-1.478546,2.268274
58203,8.735875,-1.766776,2.488106
58204,11.060615,-2.528280,2.548496
58205,13.916339,-3.283845,2.643136
58206,16.454345,-2.764286,2.981194
58207,17.930832,-1.358892,4.056391
58208,18.006568,-1.032865,3.972588
58209,17.831053,-0.765464,3.623994
58210,17.678424,-0.838994,3.052481
58211,16.709808,-1.112068,2.154085
58212,24.767659,-5.996341,0.624116
58213,15.217175,3.340385,3.742079
58214,10.848437,-0.445062,1.416617
58215,11.787152,2.682661,2.731043
58216,10.361373,1.701745,2.145629
58217,7.580268,0.178730,1.369928
58218,7.244657,-0.014280,1.492867
58219,8.958604,0.129179,1.845183
58220,10.617383,-0.387140,1.938814
58221,11.322886,-1.297187,1.097951
58222,9.656777,-0.081374,1.886360
58223,9.718533,-0.249202,1.436984
58224,9.722838,-0.082969,1.794992
58225,9.634218,-0.085962,1.951359
58226,9.643493,-0.070772,1.893493
58227,9.688504,-0.073934,1.724279
58228,9.736133,-0.094275,1.525979
58229,9.811260,-0.048779,1.464772
58230,9.695727,-0.146932,1.633772
58231,9.701391,-0.158362,1.691384
58232,9.709933,-0.121139,1.629599
58233,9.716385,-0.103931,1.633143
58234,9.699724,-0.128189,1.607143
58235,9.716534,-0.117498,1.580769
58236,9.696079,-0.038521,1.594147
58237,9.693610,-0.109595,1.605820
58238,9.719344,-0.105749,1.713619
58239,9.702346,-0.129004,1.689604
58240,9.708531,-0.164119,1.638573
58241,9.705087,-0.114854,1.619851
58242,9.705483,-0.159636,1.612140
58243,9.702430,-0.100971,1.642623
58244,9.736602,-0.110798,1.633097
58245,9.693477,-0.115185,1.609101
58246,9.717333,-0.121390,1.629251
58247,9.710016,-0.134323,1.633856
58248,9.695613,-0.128400,1.592275
58249,9.706627,-0.126044,1.609759
58250,9.720235,-0.096313,1.610012
58251,9.699051,-0.137966,1.615977
58252,9.711476,-0.102068,1.626840
58253,9.709113,-0.131808,1.642492
58254,9.693523,-0.119974,1.611471
58255,9.710914,-0.100525,1.633510
58256,9.703024,-0.162740,1.583924
58257,9.696824,-0.139264,1.583968
58258,9.709955,-0.138244,1.636976
58259,9.738802,-0.087077,1.624352
58260,9.692061,-0.124780,1.571605
58261,9.717536,-0.086992,1.636411
58262,9.720628,-0.147697,1.604268
58263,9.705397,-0.127470,1.623138
58264,9.703998,-0.120616,1.635222
58265,9.705580,-0.130553,1.621796
58266,9.704342,-0.124326,1.632900
58267,9.703733,-0.132362,1.584376
58268,9.713394,-0.123287,1.613870
58269,9.713307,-0.123493,1.614374
58270,9.720780,-0.112613,1.608791
58271,9.711795,-0.116376,1.627205
58272,9.730648,-0.105319,1.636950
58273,9.706188,-0.139846,1.617377
58274,9.710492,-0.121853,1.586198
58275,9.709187,-0.115059,1.597830
58276,9.712688,-0.124840,1.621239
58277,9.715453,-0.141357,1.596780
58278,9.709856,-0.110295,1.645951
58279,9.702417,-0.123007,1.651172
58280,9.715768,-0.146138,1.594427
58281,9.702044,-0.133822,1.600742
58282,9.720758,-0.121591,1.611536
58283,9.720789,-0.122499,1.611281
58284,9.711929,-0.126779,1.628990
58285,9.727354,-0.106865,1.614988
58286,9.701508,-0.133248,1.607312
58287,9.715943,-0.148626,1.596296
58288,9.725436,-0.103496,1.581433
58289,9.726593,-0.141672,1.620138
58290,9.690853,-0.133606,1.590769
58291,9.697354,-0.158221,1.588076
58292,9.733891,-0.122751,1.619836
58293,9.698720,-0.154543,1.580079
58294,9.741746,-0.071715,1.565974
58295,9.713950,-0.088707,1.574348
58296,9.721469,-0.124372,1.561180
58297,9.705980,-0.149513,1.575290
58298,9.712603,-0.126537,1.632102
58299,9.735128,-0.139909,1.607453
58300,9.691829,-0.159412,1.526519
58301,9.714423,-0.150465,1.612015
58302,9.710026,-0.127235,1.651021
58303,9.710118,-0.127530,1.650455
58304,9.743262,-0.129059,1.650610
58305,9.699785,-0.138729,1.575004
58306,9.708007,-0.129757,1.564787
58307,9.709426,-0.138883,1.551790
58308,9.713974,-0.140828,1.622747
58309,9.725980,-0.110131,1.584696
58310,9.720152,-0.131061,1.575637
58311,9.714165,-0.152664,1.567422
58312,9.712973,-0.146751,1.578823
58313,9.704254,-0.108516,1.604006
58314,9.725604,-0.157099,1.582360
58315,9.713358,-0.152669,1.575892
58316,9.734972,-0.155229,1.560863
58317,9.714025,-0.109240,1.579946
58318,9.714017,-0.153809,1.571713
58319,9.711428,-0.139461,1.596236
58320,9.717738,-0.121959,1.602268
58321,9.703022,-0.117638,1.561145
58322,9.712569,-0.197784,1.575738
58323,9.723906,-0.153902,1.600334
58324,9.725621,-0.118571,1.593842
58325,9.713747,-0.156335,1.576747
58326,9.687115,-0.127769,1.586362
58327,9.740437,-0.135858,1.525495
58328,9.703031,-0.160239,1.502241
58329,9.740338,-0.119953,1.585363
58330,9.714137,-0.101204,1.587651
58331,9.715233,-0.152793,1.567908
58332,9.726570,-0.150892,1.584349
58333,9.713349,-0.136682,1.588598
58334,9.706738,-0.117920,1.537850
58335,9.708096,-0.168385,1.516480
58336,9.728017,-0.105855,1.584056
58337,9.697868,-0.106620,1.615952
58338,9.734668,-0.131209,1.579698
58339,9.714132,-0.129388,1.588409
58340,9.721407,-0.125353,1.528784
58341,9.718191,-0.116195,1.502497
58342,9.756900,-0.085045,1.573440
58343,9.731693,-0.119827,1.556246
58344,9.695554,-0.098017,1.588727
58345,9.738101,-0.161854,1.492793
58346,9.717896,-0.154272,1.554972
58347,9.740292,-0.123272,1.538617
58348,9.729826,-0.120374,1.571866
58349,9.735968,-0.103596,1.579240
58350,9.718580,-0.126656,1.554295
58351,9.725021,-0.153557,1.550720
58352,9.710529,-0.104867,1.516526
58353,9.721300,-0.148297,1.527407
58354,9.722253,-0.100917,1.586040
58355,9.738274,-0.116423,1.614817
58356,9.718411,-0.178925,1.545289
58357,9.724054,-0.153491,1.560704
58358,9.708588,-0.138294,1.528286
58359,9.740633,-0.088302,1.549146
58360,9.716718,-0.128827,1.518618
58361,9.720202,-0.139593,1.543004
58362,9.701382,-0.095785,1.601654
58363,9.743336,-0.187478,1.559369
58364,9.731462,-0.138264,1.560223
58365,9.724523,-0.148578,1.562308
58366,9.724218,-0.110281,1.517712
58367,9.722368,-0.095441,1.538905
58368,9.711338,-0.142374,1.510330
58369,9.730518,-0.130725,1.519395
58370,9.708140,-0.121170,1.544916
58371,9.748310,-0.112281,1.542089
58372,9.727014,-0.124642,1.494478
58373,9.723456,-0.102854,1.531534
58374,9.728272,-0.122371,1.542770
58375,9.715318,-0.162410,1.530808
58376,9.719119,-0.129430,1.563301
58377,9.731528,-0.135912,1.568519
58378,9.707960,-0.132104,1.545151
58379,9.732193,-0.106774,1.512786
58380,9.730044,-0.092370,1.536172
58381,9.714585,-0.159800,1.539841
58382,9.739782,-0.129774,1.557923
58383,9.714858,-0.118654,1.548019
58384,9.705999,-0.166543,1.556806
58385,9.700307,-0.142180,1.556038
58386,9.715904,-0.118895,1.541419
58387,9.730374,-0.088657,1.538836
58388,9.718045,-0.127340,1.522753
58389,9.719625,-0.136918,1.507460
58390,9.712319,-0.148696,1.511653
58391,9.717814,-0.122474,1.529052
58392,9.721851,-0.132045,1.550507
58393,9.753731,-0.096690,1.511201
58394,9.720006,-0.132388,1.509752
58395,9.728817,-0.129740,1.490626
58396,9.712777,-0.101825,1.523898
58397,9.711120,-0.139151,1.528965
58398,9.722510,-0.139079,1.545751
58399,9.710367,-0.134390,1.538705
58400,9.719535,-0.131961,1.517276
58401,9.736062,-0.118561,1.491185
58402,9.722350,-0.106282,1.499387
58403,9.725814,-0.117578,1.524451
58404,9.721862,-0.139903,1.554382
58405,9.730798,-0.137521,1.534439
58406,9.724128,-0.105416,1.545525
58407,9.722119,-0.104410,1.505655
58408,9.723888,-0.113325,1.488860
58409,9.721632,-0.142628,1.502812
58410,9.724478,-0.115770,1.484813
58411,9.722175,-0.101434,1.510265
58412,9.732901,-0.144825,1.520363
58413,9.720458,-0.140971,1.515152
58414,9.729367,-0.138663,1.495156
58415,9.702026,-0.154009,1.500452
58416,9.743916,-0.107380,1.492605
58417,9.729117,-0.085898,1.513548
58418,9.728946,-0.087526,1.514552
58419,9.728173,-0.133962,1.507964
58420,9.727756,-0.137628,1.510319
58421,9.739837,-0.146795,1.517323
58422,9.720710,-0.161348,1.506877
58423,9.716410,-0.130913,1.556122
58424,9.720534,-0.109781,1.525073
58425,9.729552,-0.106601,1.504514
58426,9.738384,-0.105124,1.485000
58427,9.715476,-0.141119,1.503423
58428,9.692284,-0.079796,1.552771
58429,9.721654,-0.009986,1.604616
58430,9.736236,-0.120691,1.556856
58431,9.725243,-0.142469,1.468430
58432,9.746594,-0.198589,1.436693
58433,9.738542,-0.147980,1.525495
58434,9.716008,-0.139155,1.553020
58435,9.727301,-0.138221,1.570600
58436,9.717819,-0.104263,1.547586
58437,9.727998,-0.108784,1.514377
58438,9.715684,-0.103124,1.508587
58439,9.738209,-0.100618,1.544305
58440,9.718888,-0.114464,1.535186
58441,9.726296,-0.104954,1.530381
58442,9.724513,-0.141968,1.535354
58443,9.719421,-0.126210,1.526039
58444,9.718963,-0.127212,1.528868
58445,9.742762,-0.089286,1.562584
58446,9.729186,-0.127615,1.553029
58447,9.727739,-0.121520,1.567416
58448,9.711515,-0.106901,1.539748
58449,9.729709,-0.137914,1.544077
58450,9.722215,-0.105893,1.560920
58451,9.709252,-0.100679,1.559265
58452,9.712549,-0.111730,1.584762
58453,9.712411,-0.113575,1.585478
58454,9.722315,-0.119544,1.554417
58455,9.713614,-0.124224,1.572318
58456,9.708999,-0.107923,1.560355
58457,9.726507,-0.131584,1.574237
58458,9.719660,-0.099558,1.587203
58459,9.716045,-0.090843,1.563510
58460,9.731720,-0.121364,1.531560
58461,9.721357,-0.119527,1.565272
58462,9.723382,-0.124020,1.603959
58463,9.709591,-0.152713,1.601079
58464,9.732194,-0.110060,1.591148
58465,9.736768,-0.089670,1.558170
58466,9.712916,-0.128843,1.524346
58467,9.702135,-0.117398,1.566598
58468,9.737410,-0.131884,1.542057
58469,9.718483,-0.122127,1.599410
58470,9.724271,-0.108207,1.552956
58471,9.712834,-0.100952,1.541863
58472,9.725193,-0.097973,1.553038
58473,9.734623,-0.092751,1.530034
58474,9.745539,-0.083046,1.556035
58475,9.733739,-0.077881,1.547053
58476,9.729069,-0.105095,1.522824
